Label: Mini sensor 10: EMG 10 Sampling frequency: 1.259259e+003 Number of points: 81141 start: 0.000000e+000 Unit: V Domain Unit: s
Label: Mini sensor 10: ACC.X 10 Sampling frequency: 1.481481e+002 Number of points: 9546 start: 0.000000e+000 Unit: g Domain Unit: s
Label: Mini sensor 10: ACC.Y 10 Sampling frequency: 1.481481e+002 Number of points: 9546 start: 0.000000e+000 Unit: g Domain Unit: s
Label: Mini sensor 10: ACC.Z 10 Sampling frequency: 1.481481e+002 Number of points: 9546 start: 0.000000e+000 Unit: g Domain Unit: s
Label: Mini sensor 10: GYRO.X 10 Sampling frequency: 1.481481e+002 Number of points: 9546 start: 0.000000e+000 Unit: °/s Domain Unit: s
Label: Mini sensor 10: GYRO.Y 10 Sampling frequency: 1.481481e+002 Number of points: 9546 start: 0.000000e+000 Unit: °/s Domain Unit: s
Label: Mini sensor 10: GYRO.Z 10 Sampling frequency: 1.481481e+002 Number of points: 9546 start: 0.000000e+000 Unit: °/s Domain Unit: s
Label: Mini sensor 11: EMG 11 Sampling frequency: 1.259259e+003 Number of points: 81141 start: 0.000000e+000 Unit: V Domain Unit: s
Label: Mini sensor 11: ACC.X 11 Sampling frequency: 1.481481e+002 Number of points: 9546 start: 0.000000e+000 Unit: g Domain Unit: s
Label: Mini sensor 11: ACC.Y 11 Sampling frequency: 1.481481e+002 Number of points: 9546 start: 0.000000e+000 Unit: g Domain Unit: s
Label: Mini sensor 11: ACC.Z 11 Sampling frequency: 1.481481e+002 Number of points: 9546 start: 0.000000e+000 Unit: g Domain Unit: s
Label: Mini sensor 11: GYRO.X 11 Sampling frequency: 1.481481e+002 Number of points: 9546 start: 0.000000e+000 Unit: °/s Domain Unit: s
Label: Mini sensor 11: GYRO.Y 11 Sampling frequency: 1.481481e+002 Number of points: 9546 start: 0.000000e+000 Unit: °/s Domain Unit: s
Label: Mini sensor 11: GYRO.Z 11 Sampling frequency: 1.481481e+002 Number of points: 9546 start: 0.000000e+000 Unit: °/s Domain Unit: s
Start Trigger Method: None
Stop Trigger Method: None

X[s],"Mini sensor 10: EMG 10",X[s],"Mini sensor 10: ACC.X 10",X[s],"Mini sensor 10: ACC.Y 10",X[s],"Mini sensor 10: ACC.Z 10",X[s],"Mini sensor 10: GYRO.X 10",X[s],"Mini sensor 10: GYRO.Y 10",X[s],"Mini sensor 10: GYRO.Z 10",X[s],"Mini sensor 11: EMG 11",X[s],"Mini sensor 11: ACC.X 11",X[s],"Mini sensor 11: ACC.Y 11",X[s],"Mini sensor 11: ACC.Z 11",X[s],"Mini sensor 11: GYRO.X 11",X[s],"Mini sensor 11: GYRO.Y 11",X[s],"Mini sensor 11: GYRO.Z 11"
0.0,0.0,0.0,0.0,0.0,0.0,0.0,0.0,0.0,0.0,0.0,0.0,0.0,0.0,0.0,0.0,0.0,0.0,0.0,0.0,0.0,0.0,0.0,0.0,0.0,0.0,0.0,0.0
0.0007941176,0.0,0.00675,0.0,0.00675,0.0,0.00675,0.0,0.00675,0.0,0.00675,0.0,0.00675,0.0,0.0007941176,0.0,0.00675,0.0,0.00675,0.0,0.00675,0.0,0.00675,0.0,0.00675,0.0,0.00675,0.0
0.001588235,0.0,0.0135,0.0,0.0135,0.0,0.0135,0.0,0.0135,0.0,0.0135,0.0,0.0135,0.0,0.001588235,0.0,0.0135,0.0,0.0135,0.0,0.0135,0.0,0.0135,0.0,0.0135,0.0,0.0135,0.0
0.002382353,0.0,0.02025,0.0,0.02025,0.0,0.02025,0.0,0.02025,0.0,0.02025,0.0,0.02025,0.0,0.002382353,0.0,0.02025,0.0,0.02025,0.0,0.02025,0.0,0.02025,0.0,0.02025,0.0,0.02025,0.0
0.003176471,0.0,0.027,0.0,0.027,0.0,0.027,0.0,0.027,0.0,0.027,0.0,0.027,0.0,0.003176471,0.0,0.027,0.0,0.027,0.0,0.027,0.0,0.027,0.0,0.027,0.0,0.027,0.0
0.003970588,0.0,0.03375,0.0,0.03375,0.0,0.03375,0.0,0.03375,0.0,0.03375,0.0,0.03375,0.0,0.003970588,0.0,0.03375,0.0,0.03375,0.0,0.03375,0.0,0.03375,0.0,0.03375,0.0,0.03375,0.0
0.004764706,0.0,0.0405,0.0,0.0405,0.0,0.0405,0.0,0.0405,0.0,0.0405,0.0,0.0405,0.0,0.004764706,0.0,0.0405,0.0,0.0405,0.0,0.0405,0.0,0.0405,0.0,0.0405,0.0,0.0405,0.0
0.005558823,0.0,0.04725,0.0,0.04725,0.0,0.04725,0.0,0.04725,0.0,0.04725,0.0,0.04725,0.0,0.005558823,0.0,0.04725,0.0,0.04725,0.0,0.04725,0.0,0.04725,0.0,0.04725,0.0,0.04725,0.0
0.006352941,0.0,0.054,0.0,0.054,0.0,0.054,0.0,0.054,0.0,0.054,0.0,0.054,0.0,0.006352941,0.0,0.054,0.0,0.054,0.0,0.054,0.0,0.054,0.0,0.054,0.0,0.054,0.0
0.007147059,0.0,0.06075,0.0,0.06075,0.0,0.06075,0.0,0.06075,0.0,0.06075,0.0,0.06075,0.0,0.007147059,0.0,0.06075,0.0,0.06075,0.0,0.06075,0.0,0.06075,0.0,0.06075,0.0,0.06075,0.0
0.007941176,0.0,0.0675,0.0,0.0675,0.0,0.0675,0.0,0.0675,0.0,0.0675,0.0,0.0675,0.0,0.007941176,0.0,0.0675,0.0,0.0675,0.0,0.0675,0.0,0.0675,0.0,0.0675,0.0,0.0675,0.0
0.008735294,0.0,0.07425,0.0,0.07425,0.0,0.07425,0.0,0.07425,0.0,0.07425,0.0,0.07425,0.0,0.008735294,0.0,0.07425,0.0,0.07425,0.0,0.07425,0.0,0.07425,0.0,0.07425,0.0,0.07425,0.0
0.009529412,0.0,0.081,0.0,0.081,0.0,0.081,0.0,0.081,0.0,0.081,0.0,0.081,0.0,0.009529412,0.0,0.081,0.0,0.081,0.0,0.081,0.0,0.081,0.0,0.081,0.0,0.081,0.0
0.01032353,0.0,0.08775,0.0,0.08775,0.0,0.08775,0.0,0.08775,0.0,0.08775,0.0,0.08775,0.0,0.01032353,0.0,0.08775,0.0,0.08775,0.0,0.08775,0.0,0.08775,0.0,0.08775,0.0,0.08775,0.0
0.01111765,0.0,0.0945,0.0,0.0945,0.0,0.0945,0.0,0.0945,0.0,0.0945,0.0,0.0945,0.0,0.01111765,0.0,0.0945,0.0,0.0945,0.0,0.0945,0.0,0.0945,0.0,0.0945,0.0,0.0945,0.0
0.01191176,0.0,0.10125,0.0,0.10125,0.0,0.10125,0.0,0.10125,0.0,0.10125,0.0,0.10125,0.0,0.01191176,0.0,0.10125,0.0,0.10125,0.0,0.10125,0.0,0.10125,0.0,0.10125,0.0,0.10125,0.0
0.01270588,0.0,0.108,0.08496094,0.108,0.3632813,0.108,-1.011719,0.108,8.780488,0.108,17.37805,0.108,-2.439024,0.01270588,0.0,0.108,-0.402832,0.108,0.4389648,0.108,-0.9291992,0.108,17.92683,0.108,-5.121951,0.108,0.0
0.0135,0.0,0.11475,0.09082031,0.11475,0.3652344,0.11475,-1.004883,0.11475,8.719512,0.11475,16.52439,0.11475,-2.439024,0.0135,0.0,0.11475,-0.402832,0.11475,0.4350586,0.11475,-0.9291992,0.11475,17.92683,0.11475,-5.487805,0.11475,0.0
0.01429412,0.0,0.1215,0.09277344,0.1215,0.3613281,0.1215,-1.005859,0.1215,8.47561,0.1215,16.28049,0.1215,-2.134146,0.01429412,0.0,0.1215,-0.3979492,0.1215,0.4370117,0.1215,-0.925293,0.1215,18.10976,0.1215,-6.097561,0.1215,0.1219512
0.01508824,0.0,0.12825,0.09814453,0.12825,0.3588867,0.12825,-1.012207,0.12825,8.353659,0.12825,16.82927,0.12825,-2.012195,0.01508824,0.0,0.12825,-0.3901367,0.12825,0.4321289,0.12825,-0.9267578,0.12825,17.92683,0.12825,-6.890244,0.12825,0.3048781
0.01588235,0.0,0.135,0.1035156,0.135,0.3608398,0.135,-1.012695,0.135,7.865854,0.135,18.04878,0.135,-1.768293,0.01588235,0.0,0.135,-0.3862305,0.135,0.4321289,0.135,-0.9287109,0.135,17.92683,0.135,-6.707317,0.135,0.7926829
0.01667647,0.0,0.14175,0.1044922,0.14175,0.3603516,0.14175,-1.010742,0.14175,7.865854,0.14175,18.53658,0.14175,-1.463415,0.01667647,0.0,0.14175,-0.3842773,0.14175,0.4296875,0.14175,-0.9301758,0.14175,17.62195,0.14175,-5.853659,0.14175,1.097561
0.01747059,0.0,0.1485,0.1064453,0.1485,0.3598633,0.1485,-1.014648,0.1485,7.804878,0.1485,18.53658,0.1485,-1.463415,0.01747059,0.0,0.1485,-0.3813477,0.1485,0.4321289,0.1485,-0.9321289,0.1485,17.86585,0.1485,-4.329268,0.1485,1.280488
0.01826471,0.0,0.15525,0.1079102,0.15525,0.3579102,0.15525,-1.016602,0.15525,7.560976,0.15525,18.84146,0.15525,-1.402439,0.01826471,0.0,0.15525,-0.3842773,0.15525,0.4360352,0.15525,-0.9331055,0.15525,17.37805,0.15525,-3.658537,0.15525,1.341463
0.01905882,0.0,0.162,0.1088867,0.162,0.3603516,0.162,-1.016113,0.162,7.317073,0.162,19.5122,0.162,-1.463415,0.01905882,0.0,0.162,-0.3867188,0.162,0.4375,0.162,-0.9399414,0.162,17.2561,0.162,-3.719512,0.162,1.402439
0.01985294,0.0,0.16875,0.1088867,0.16875,0.3583984,0.16875,-1.009766,0.16875,7.317073,0.16875,19.32927,0.16875,-2.012195,0.01985294,0.0,0.16875,-0.3837891,0.16875,0.4345703,0.16875,-0.940918,0.16875,16.95122,0.16875,-4.268293,0.16875,1.097561
0.02064706,0.0,0.1755,0.1098633,0.1755,0.3549805,0.1755,-1.006836,0.1755,7.012195,0.1755,18.41463,0.1755,-2.317073,0.02064706,0.0,0.1755,-0.3842773,0.1755,0.4335938,0.1755,-0.9399414,0.1755,16.52439,0.1755,-4.939024,0.1755,0.7317073
0.02144118,0.0,0.18225,0.1088867,0.18225,0.3486328,0.18225,-1.003418,0.18225,6.95122,0.18225,17.86585,0.18225,-2.865854,0.02144118,0.0,0.18225,-0.3803711,0.18225,0.4272461,0.18225,-0.9311523,0.18225,16.34146,0.18225,-5.97561,0.18225,0.5487805
0.02223529,0.0,0.189,0.1103516,0.189,0.3452148,0.189,-0.9985352,0.189,6.95122,0.189,17.92683,0.189,-2.926829,0.02223529,0.0,0.189,-0.3754883,0.189,0.4199219,0.189,-0.9306641,0.189,16.21951,0.189,-7.073171,0.189,0.2439024
0.02302941,0.0,0.19575,0.1103516,0.19575,0.3344727,0.19575,-0.9970703,0.19575,6.95122,0.19575,18.53658,0.19575,-3.170732,0.02302941,0.0,0.19575,-0.3779297,0.19575,0.4130859,0.19575,-0.9233398,0.19575,16.15854,0.19575,-7.5,0.19575,-0.1219512
0.02382353,0.0,0.2025,0.1083984,0.2025,0.3334961,0.2025,-0.9931641,0.2025,7.195122,0.2025,19.08537,0.2025,-3.292683,0.02382353,0.0,0.2025,-0.3725586,0.2025,0.4047852,0.2025,-0.9223633,0.2025,16.46342,0.2025,-7.012195,0.2025,-0.1219512
0.02461765,0.0,0.20925,0.1098633,0.20925,0.3325195,0.20925,-0.9897461,0.20925,7.560976,0.20925,19.39024,0.20925,-2.865854,0.02461765,0.0,0.20925,-0.3720703,0.20925,0.4038086,0.20925,-0.9150391,0.20925,17.13415,0.20925,-6.036585,0.20925,0.2439024
0.02541176,0.0,0.216,0.1108398,0.216,0.3334961,0.216,-0.9853516,0.216,7.804878,0.216,19.69512,0.216,-2.134146,0.02541176,0.0,0.216,-0.3706055,0.216,0.4013672,0.216,-0.9145508,0.216,17.37805,0.216,-5.670732,0.216,0.4268293
0.02620588,0.0,0.22275,0.1108398,0.22275,0.3339844,0.22275,-0.9838867,0.22275,7.926829,0.22275,20.73171,0.22275,-1.280488,0.02620588,0.0,0.22275,-0.3696289,0.22275,0.4067383,0.22275,-0.9106445,0.22275,17.68293,0.22275,-4.939024,0.22275,1.097561
0.027,0.0,0.2295,0.1049805,0.2295,0.3398438,0.2295,-0.984375,0.2295,8.109756,0.2295,21.89024,0.2295,-0.7317073,0.027,0.0,0.2295,-0.3701172,0.2295,0.4086914,0.2295,-0.9047852,0.2295,18.10976,0.2295,-4.45122,0.2295,1.829268
0.02779412,0.0,0.23625,0.105957,0.23625,0.3432617,0.23625,-0.9765625,0.23625,8.170732,0.23625,22.56098,0.23625,-0.4878049,0.02779412,0.0,0.23625,-0.3706055,0.23625,0.4116211,0.23625,-0.9018555,0.23625,18.23171,0.23625,-3.780488,0.23625,2.378049
0.02858824,0.0,0.243,0.1000977,0.243,0.3481445,0.243,-0.9731445,0.243,8.719512,0.243,23.41463,0.243,-0.1219512,0.02858824,0.0,0.243,-0.3740234,0.243,0.4208984,0.243,-0.8979492,0.243,18.96342,0.243,-2.926829,0.243,2.378049
0.02938235,0.0,0.24975,0.09423828,0.24975,0.3520508,0.24975,-0.9780273,0.24975,8.963415,0.24975,23.59756,0.24975,0.0,0.02938235,0.0,0.24975,-0.3818359,0.24975,0.425293,0.24975,-0.8974609,0.24975,19.32927,0.24975,-2.256098,0.24975,2.256098
0.03017647,0.0,0.2565,0.08984375,0.2565,0.3544922,0.2565,-0.9790039,0.2565,9.45122,0.2565,24.26829,0.2565,-0.06097561,0.03017647,0.0,0.2565,-0.387207,0.2565,0.4291992,0.2565,-0.8974609,0.2565,19.20732,0.2565,-2.256098,0.2565,2.134146
0.03097059,0.0,0.26325,0.08691406,0.26325,0.362793,0.26325,-0.9838867,0.26325,9.695122,0.26325,25.12195,0.26325,-0.3048781,0.03097059,0.0,0.26325,-0.3945313,0.26325,0.434082,0.26325,-0.8989258,0.26325,19.45122,0.26325,-2.134146,0.26325,2.012195
0.0317647,0.0,0.27,0.07714844,0.27,0.3647461,0.27,-0.9892578,0.27,9.939025,0.27,25.2439,0.27,-0.3658537,0.0317647,0.0,0.27,-0.3989258,0.27,0.4350586,0.27,-0.9003906,0.27,19.5122,0.27,-1.95122,0.27,1.890244
0.03255882,0.0,0.27675,0.07617188,0.27675,0.3710938,0.27675,-0.9916992,0.27675,9.939025,0.27675,23.59756,0.27675,-0.3658537,0.03255882,0.0,0.27675,-0.4057617,0.27675,0.4384766,0.27675,-0.9106445,0.27675,19.45122,0.27675,-1.95122,0.27675,1.707317
0.03335294,0.0,0.2835,0.07861328,0.2835,0.3681641,0.2835,-0.9921875,0.2835,9.756098,0.2835,21.34146,0.2835,-0.4878049,0.03335294,0.0,0.2835,-0.4116211,0.2835,0.4414063,0.2835,-0.9150391,0.2835,19.45122,0.2835,-2.804878,0.2835,1.463415
0.03414706,0.0,0.29025,0.08154297,0.29025,0.3652344,0.29025,-0.9916992,0.29025,9.695122,0.29025,18.96342,0.29025,-0.7317073,0.03414706,0.0,0.29025,-0.4091797,0.29025,0.4394531,0.29025,-0.9189453,0.29025,19.5122,0.29025,-4.329268,0.29025,0.9756098
0.03494118,0.0,0.297,0.08398438,0.297,0.359375,0.297,-0.9892578,0.297,9.817074,0.297,17.19512,0.297,-1.280488,0.03494118,0.0,0.297,-0.4003906,0.297,0.4394531,0.297,-0.9155273,0.297,19.5122,0.297,-6.036585,0.297,0.4878049
0.03573529,0.0,0.30375,0.09082031,0.30375,0.3569336,0.30375,-0.9863281,0.30375,10.12195,0.30375,15.97561,0.30375,-1.768293,0.03573529,0.0,0.30375,-0.3930664,0.30375,0.4321289,0.30375,-0.9101563,0.30375,19.69512,0.30375,-7.560976,0.30375,-0.3048781
0.03652941,0.0,0.3105,0.09765625,0.3105,0.3569336,0.3105,-0.9912109,0.3105,10.36585,0.3105,16.52439,0.3105,-2.317073,0.03652941,0.0,0.3105,-0.394043,0.3105,0.4301758,0.3105,-0.90625,0.3105,19.69512,0.3105,-8.353659,0.3105,-0.8536586
0.03732353,0.0,0.31725,0.09375,0.31725,0.3540039,0.31725,-0.9946289,0.31725,10.48781,0.31725,17.68293,0.31725,-2.378049,0.03732353,0.0,0.31725,-0.3911133,0.31725,0.425293,0.31725,-0.9082031,0.31725,19.7561,0.31725,-7.987805,0.31725,-1.097561
0.03811765,0.0,0.324,0.09082031,0.324,0.3505859,0.324,-0.9990234,0.324,10.54878,0.324,18.29268,0.324,-2.439024,0.03811765,0.0,0.324,-0.3911133,0.324,0.4238281,0.324,-0.909668,0.324,19.63415,0.324,-7.378049,0.324,-1.097561
0.03891176,0.0,0.33075,0.09716797,0.33075,0.3491211,0.33075,-1.000977,0.33075,10.2439,0.33075,18.47561,0.33075,-2.378049,0.03891176,0.0,0.33075,-0.3911133,0.33075,0.4189453,0.33075,-0.9169922,0.33075,19.32927,0.33075,-5.853659,0.33075,-0.7926829
0.03970588,0.0,0.3375,0.09521484,0.3375,0.3486328,0.3375,-1.00293,0.3375,10.06098,0.3375,18.65854,0.3375,-2.256098,0.03970588,0.0,0.3375,-0.3925781,0.3375,0.4204102,0.3375,-0.9228516,0.3375,19.14634,0.3375,-4.695122,0.3375,-0.6097561
0.0405,0.0,0.34425,0.09472656,0.34425,0.3466797,0.34425,-1.002441,0.34425,9.817074,0.34425,18.53658,0.34425,-1.95122,0.0405,0.0,0.34425,-0.3901367,0.34425,0.4194336,0.34425,-0.9243164,0.34425,19.20732,0.34425,-3.963415,0.34425,-0.2439024
0.04129412,0.0,0.351,0.09521484,0.351,0.3461914,0.351,-1.004395,0.351,9.817074,0.351,18.65854,0.351,-1.95122,0.04129412,0.0,0.351,-0.394043,0.351,0.421875,0.351,-0.9267578,0.351,19.20732,0.351,-4.085366,0.351,0.0
0.04208823,0.0,0.35775,0.09619141,0.35775,0.3496094,0.35775,-1.010742,0.35775,9.756098,0.35775,19.20732,0.35775,-1.890244,0.04208823,0.0,0.35775,-0.3984375,0.35775,0.425293,0.35775,-0.9287109,0.35775,19.26829,0.35775,-4.817073,0.35775,-0.06097561
0.04288235,0.0,0.3645,0.09863281,0.3645,0.355957,0.3645,-1.011719,0.3645,10.06098,0.3645,19.39024,0.3645,-2.012195,0.04288235,0.0,0.3645,-0.3964844,0.3645,0.4272461,0.3645,-0.9326172,0.3645,19.26829,0.3645,-5.0,0.3645,0.0
0.04367647,0.0,0.37125,0.09765625,0.37125,0.3530273,0.37125,-1.019043,0.37125,10.0,0.37125,19.02439,0.37125,-1.585366,0.04367647,0.0,0.37125,-0.3984375,0.37125,0.4267578,0.37125,-0.9389648,0.37125,19.26829,0.37125,-4.756098,0.37125,-0.06097561
0.04447059,0.0,0.378,0.09912109,0.378,0.3549805,0.378,-1.019043,0.378,9.695122,0.378,17.9878,0.378,-1.646341,0.04447059,0.0,0.378,-0.3989258,0.378,0.4326172,0.378,-0.9418945,0.378,19.14634,0.378,-4.756098,0.378,0.1829268
0.04526471,0.0,0.38475,0.1020508,0.38475,0.3535156,0.38475,-1.02002,0.38475,9.512196,0.38475,16.46342,0.38475,-1.829268,0.04526471,0.0,0.38475,-0.3974609,0.38475,0.4287109,0.38475,-0.9482422,0.38475,18.96342,0.38475,-5.304878,0.38475,0.2439024
0.04605882,0.0,0.3915,0.1044922,0.3915,0.3525391,0.3915,-1.019043,0.3915,9.085366,0.3915,15.73171,0.3915,-1.829268,0.04605882,0.0,0.3915,-0.3945313,0.3915,0.4316406,0.3915,-0.9482422,0.3915,18.65854,0.3915,-6.463415,0.3915,0.0
0.04685294,0.0,0.39825,0.1098633,0.39825,0.3500977,0.39825,-1.018066,0.39825,8.841464,0.39825,15.06098,0.39825,-2.195122,0.04685294,0.0,0.39825,-0.390625,0.39825,0.4296875,0.39825,-0.9472656,0.39825,18.23171,0.39825,-7.317073,0.39825,0.0
0.04764706,0.0,0.405,0.1147461,0.405,0.3544922,0.405,-1.012207,0.405,8.414635,0.405,14.39024,0.405,-2.134146,0.04764706,0.0,0.405,-0.3857422,0.405,0.4267578,0.405,-0.9399414,0.405,18.10976,0.405,-7.987805,0.405,-0.1829268
0.04844118,0.0,0.41175,0.1162109,0.41175,0.3530273,0.41175,-1.009766,0.41175,8.353659,0.41175,14.45122,0.41175,-2.256098,0.04844118,0.0,0.41175,-0.378418,0.41175,0.4277344,0.41175,-0.9355469,0.41175,18.04878,0.41175,-8.170732,0.41175,0.06097561
0.04923529,0.0,0.4185,0.1220703,0.4185,0.3535156,0.4185,-1.005371,0.4185,8.170732,0.4185,15.67073,0.4185,-2.560976,0.04923529,0.0,0.4185,-0.371582,0.4185,0.4316406,0.4185,-0.9301758,0.4185,17.68293,0.4185,-7.682927,0.4185,-0.1219512
0.05002941,0.0,0.42525,0.1245117,0.42525,0.3530273,0.42525,-1.001465,0.42525,8.170732,0.42525,16.40244,0.42525,-2.682927,0.05002941,0.0,0.42525,-0.3710938,0.42525,0.4296875,0.42525,-0.9272461,0.42525,17.56098,0.42525,-7.012195,0.42525,-0.2439024
0.05082353,0.0,0.432,0.1196289,0.432,0.3520508,0.432,-1.0,0.432,8.170732,0.432,17.62195,0.432,-2.804878,0.05082353,0.0,0.432,-0.3701172,0.432,0.4282227,0.432,-0.9257813,0.432,17.43902,0.432,-5.914634,0.432,-0.1219512
0.05161764,0.0,0.43875,0.1191406,0.43875,0.3549805,0.43875,-0.9980469,0.43875,8.231708,0.43875,18.29268,0.43875,-2.439024,0.05161764,0.0,0.43875,-0.3701172,0.43875,0.4267578,0.43875,-0.9208984,0.43875,17.5,0.43875,-5.365854,0.43875,-0.1219512
0.05241176,0.0,0.4455,0.1176758,0.4455,0.3530273,0.4455,-0.9956055,0.4455,8.292683,0.4455,18.90244,0.4455,-2.439024,0.05241176,0.0,0.4455,-0.3725586,0.4455,0.4262695,0.4455,-0.9223633,0.4455,17.7439,0.4455,-4.817073,0.4455,0.1219512
0.05320588,0.0,0.45225,0.1181641,0.45225,0.3496094,0.45225,-0.9936523,0.45225,8.658537,0.45225,19.81707,0.45225,-2.134146,0.05320588,0.0,0.45225,-0.3735352,0.45225,0.4257813,0.45225,-0.9223633,0.45225,17.80488,0.45225,-4.512195,0.45225,0.3658537
0.054,0.0,0.459,0.112793,0.459,0.3544922,0.459,-0.9970703,0.459,8.902439,0.459,20.36585,0.459,-2.073171,0.054,0.0,0.459,-0.3769531,0.459,0.4238281,0.459,-0.925293,0.459,18.29268,0.459,-4.02439,0.459,0.2439024
0.05479412,0.0,0.46575,0.1108398,0.46575,0.3569336,0.46575,-0.9970703,0.46575,9.329268,0.46575,20.36585,0.46575,-1.829268,0.05479412,0.0,0.46575,-0.378418,0.46575,0.4296875,0.46575,-0.9248047,0.46575,18.53658,0.46575,-3.414634,0.46575,0.3658537
0.05558823,0.0,0.4725,0.105957,0.4725,0.3598633,0.4725,-1.0,0.4725,9.390244,0.4725,20.4878,0.4725,-1.707317,0.05558823,0.0,0.4725,-0.3857422,0.4725,0.4331055,0.4725,-0.9238281,0.4725,18.84146,0.4725,-3.04878,0.4725,0.4878049
0.05638235,0.0,0.47925,0.1064453,0.47925,0.3588867,0.47925,-1.0,0.47925,9.45122,0.47925,20.54878,0.47925,-1.829268,0.05638235,0.0,0.47925,-0.3901367,0.47925,0.4360352,0.47925,-0.9238281,0.47925,18.90244,0.47925,-2.865854,0.47925,0.3658537
0.05717647,0.0,0.486,0.1020508,0.486,0.3598633,0.486,-1.001953,0.486,9.268292,0.486,20.91463,0.486,-2.134146,0.05717647,0.0,0.486,-0.3930664,0.486,0.4360352,0.486,-0.9257813,0.486,18.53658,0.486,-2.865854,0.486,0.2439024
0.05797059,0.0,0.49275,0.1020508,0.49275,0.3598633,0.49275,-1.002441,0.49275,9.02439,0.49275,21.21951,0.49275,-2.621951,0.05797059,0.0,0.49275,-0.390625,0.49275,0.4345703,0.49275,-0.9238281,0.49275,18.17073,0.49275,-3.170732,0.49275,0.0
0.0587647,0.0,0.4995,0.09423828,0.4995,0.3603516,0.4995,-1.008789,0.4995,8.841464,0.4995,21.34146,0.4995,-3.04878,0.0587647,0.0,0.4995,-0.3955078,0.4995,0.4316406,0.4995,-0.9272461,0.4995,17.86585,0.4995,-2.987805,0.4995,-0.3658537
0.05955882,0.0,0.50625,0.09423828,0.50625,0.3574219,0.50625,-1.006836,0.50625,8.719512,0.50625,20.79268,0.50625,-3.04878,0.05955882,0.0,0.50625,-0.3989258,0.50625,0.4296875,0.50625,-0.9272461,0.50625,17.62195,0.50625,-2.804878,0.50625,-0.3048781
0.06035294,0.0,0.513,0.09667969,0.513,0.3540039,0.513,-1.005371,0.513,8.780488,0.513,20.42683,0.513,-2.926829,0.06035294,0.0,0.513,-0.3979492,0.513,0.4257813,0.513,-0.9248047,0.513,17.7439,0.513,-3.170732,0.513,-0.2439024
0.06114706,0.0,0.51975,0.09570313,0.51975,0.3496094,0.51975,-1.004395,0.51975,8.597561,0.51975,20.12195,0.51975,-2.743902,0.06114706,0.0,0.51975,-0.3989258,0.51975,0.4223633,0.51975,-0.9233398,0.51975,17.7439,0.51975,-3.658537,0.51975,-0.06097561
0.06194118,0.0,0.5265,0.09423828,0.5265,0.3476563,0.5265,-1.002441,0.5265,8.658537,0.5265,20.2439,0.5265,-2.5,0.06194118,0.0,0.5265,-0.3984375,0.5265,0.4199219,0.5265,-0.9223633,0.5265,17.80488,0.5265,-4.207317,0.5265,0.06097561
0.0627353,0.0,0.53325,0.09375,0.53325,0.3447266,0.53325,-1.006348,0.53325,8.841464,0.53325,20.2439,0.53325,-2.378049,0.0627353,0.0,0.53325,-0.3974609,0.53325,0.4165039,0.53325,-0.9204102,0.53325,18.23171,0.53325,-4.329268,0.53325,0.1829268
0.06352941,0.0,0.54,0.08984375,0.54,0.3491211,0.54,-1.008301,0.54,8.902439,0.54,20.36585,0.54,-2.439024,0.06352941,0.0,0.54,-0.3989258,0.54,0.4204102,0.54,-0.9223633,0.54,18.17073,0.54,-3.658537,0.54,0.1829268
0.06432353,0.0,0.54675,0.09082031,0.54675,0.3481445,0.54675,-1.004395,0.54675,8.902439,0.54675,19.69512,0.54675,-2.317073,0.06432353,0.0,0.54675,-0.3964844,0.54675,0.4208984,0.54675,-0.9262695,0.54675,18.17073,0.54675,-3.47561,0.54675,0.06097561
0.06511765,0.0,0.5535,0.09619141,0.5535,0.3535156,0.5535,-1.001465,0.5535,8.658537,0.5535,18.59756,0.5535,-2.439024,0.06511765,0.0,0.5535,-0.3950195,0.5535,0.4223633,0.5535,-0.9208984,0.5535,18.23171,0.5535,-3.04878,0.5535,-0.1219512
0.06591176,0.0,0.56025,0.09521484,0.56025,0.3525391,0.56025,-1.005371,0.56025,8.536586,0.56025,18.84146,0.56025,-2.621951,0.06591176,0.0,0.56025,-0.3964844,0.56025,0.4213867,0.56025,-0.9189453,0.56025,17.80488,0.56025,-3.353659,0.56025,0.06097561
0.06670588,0.0,0.567,0.09082031,0.567,0.3520508,0.567,-1.006348,0.567,8.170732,0.567,20.42683,0.567,-2.5,0.06670588,0.0,0.567,-0.4008789,0.567,0.4228516,0.567,-0.9194336,0.567,17.37805,0.567,-4.512195,0.567,0.2439024
0.0675,0.0,0.57375,0.08837891,0.57375,0.3491211,0.57375,-1.000488,0.57375,8.04878,0.57375,20.42683,0.57375,-2.378049,0.0675,0.0,0.57375,-0.3969727,0.57375,0.4204102,0.57375,-0.9179688,0.57375,17.37805,0.57375,-4.756098,0.57375,0.5487805
0.06829412,0.0,0.5805,0.09130859,0.5805,0.3476563,0.5805,-1.00293,0.5805,7.926829,0.5805,19.69512,0.5805,-1.829268,0.06829412,0.0,0.5805,-0.3989258,0.5805,0.418457,0.5805,-0.9199219,0.5805,17.43902,0.5805,-4.329268,0.5805,0.7926829
0.06908824,0.0,0.58725,0.09326172,0.58725,0.3452148,0.58725,-1.004883,0.58725,8.04878,0.58725,19.93902,0.58725,-1.768293,0.06908824,0.0,0.58725,-0.3984375,0.58725,0.4189453,0.58725,-0.9223633,0.58725,17.62195,0.58725,-4.085366,0.58725,1.219512
0.06988236,0.0,0.594,0.08984375,0.594,0.3432617,0.594,-0.9990234,0.594,8.414635,0.594,18.90244,0.594,-1.707317,0.06988236,0.0,0.594,-0.3984375,0.594,0.4189453,0.594,-0.9204102,0.594,18.04878,0.594,-4.085366,0.594,1.036585
0.07067647,0.0,0.60075,0.09375,0.60075,0.3476563,0.60075,-1.001465,0.60075,8.719512,0.60075,17.56098,0.60075,-1.463415,0.07067647,0.0,0.60075,-0.3955078,0.60075,0.421875,0.60075,-0.9213867,0.60075,18.41463,0.60075,-4.268293,0.60075,0.7317073
0.07147059,0.0,0.6075,0.09570313,0.6075,0.3515625,0.6075,-1.0,0.6075,8.780488,0.6075,17.31707,0.6075,-1.707317,0.07147059,0.0,0.6075,-0.3925781,0.6075,0.4248047,0.6075,-0.9233398,0.6075,18.53658,0.6075,-4.573171,0.6075,0.5487805
0.0722647,0.0,0.61425,0.09619141,0.61425,0.3535156,0.61425,-0.9995117,0.61425,9.085366,0.61425,16.82927,0.61425,-1.95122,0.0722647,0.0,0.61425,-0.3935547,0.61425,0.4277344,0.61425,-0.921875,0.61425,18.53658,0.61425,-5.182927,0.61425,0.1829268
0.07305882,0.0,0.621,0.09765625,0.621,0.3535156,0.621,-0.9916992,0.621,8.963415,0.621,16.28049,0.621,-2.012195,0.07305882,0.0,0.621,-0.3911133,0.621,0.4272461,0.621,-0.9174805,0.621,18.47561,0.621,-5.792683,0.621,0.06097561
0.07385294,0.0,0.62775,0.09863281,0.62775,0.355957,0.62775,-0.996582,0.62775,8.841464,0.62775,16.70732,0.62775,-2.195122,0.07385294,0.0,0.62775,-0.3901367,0.62775,0.4262695,0.62775,-0.9145508,0.62775,18.29268,0.62775,-6.158537,0.62775,-0.06097561
0.07464705,0.0,0.6345,0.09912109,0.6345,0.3540039,0.6345,-0.9960938,0.6345,8.780488,0.6345,18.23171,0.6345,-2.439024,0.07464705,0.0,0.6345,-0.3901367,0.6345,0.4257813,0.6345,-0.9091797,0.6345,18.29268,0.6345,-5.731708,0.6345,0.0
0.07544117,0.0,0.64125,0.09228516,0.64125,0.3574219,0.64125,-0.9926758,0.64125,8.963415,0.64125,18.96342,0.64125,-2.134146,0.07544117,0.0,0.64125,-0.3930664,0.64125,0.4248047,0.64125,-0.9086914,0.64125,18.35366,0.64125,-4.878049,0.64125,0.3658537
0.07623529,0.0,0.648,0.09130859,0.648,0.3588867,0.648,-0.9941406,0.648,9.268292,0.648,18.53658,0.648,-1.707317,0.07623529,0.0,0.648,-0.3959961,0.648,0.4243164,0.648,-0.9125977,0.648,18.84146,0.648,-4.146341,0.648,0.6097561
0.07702941,0.0,0.65475,0.09472656,0.65475,0.3569336,0.65475,-0.9951172,0.65475,9.390244,0.65475,18.29268,0.65475,-1.280488,0.07702941,0.0,0.65475,-0.3979492,0.65475,0.4243164,0.65475,-0.9130859,0.65475,19.14634,0.65475,-4.268293,0.65475,0.9146342
0.07782353,0.0,0.6615,0.09130859,0.6615,0.355957,0.6615,-0.9985352,0.6615,9.817074,0.6615,18.59756,0.6615,-0.9146342,0.07782353,0.0,0.6615,-0.3994141,0.6615,0.4282227,0.6615,-0.9150391,0.6615,19.57317,0.6615,-4.634146,0.6615,0.7317073
0.07861765,0.0,0.66825,0.09033203,0.66825,0.3583984,0.66825,-1.005859,0.66825,10.30488,0.66825,18.29268,0.66825,-0.8536586,0.07861765,0.0,0.66825,-0.3999023,0.66825,0.434082,0.66825,-0.9213867,0.66825,19.87805,0.66825,-4.817073,0.66825,0.5487805
0.07941176,0.0,0.675,0.09130859,0.675,0.3598633,0.675,-1.008789,0.675,10.54878,0.675,17.07317,0.675,-1.097561,0.07941176,0.0,0.675,-0.4003906,0.675,0.4365234,0.675,-0.925293,0.675,20.2439,0.675,-4.573171,0.675,0.2439024
0.08020588,0.0,0.68175,0.09179688,0.68175,0.3637695,0.68175,-1.009766,0.68175,10.42683,0.68175,16.40244,0.68175,-1.585366,0.08020588,0.0,0.68175,-0.3999023,0.68175,0.4384766,0.68175,-0.9287109,0.68175,20.06098,0.68175,-4.268293,0.68175,0.06097561
0.081,0.0,0.6885,0.09570313,0.6885,0.3647461,0.6885,-1.010742,0.6885,10.18293,0.6885,16.52439,0.6885,-2.012195,0.081,0.0,0.6885,-0.4047852,0.6885,0.4375,0.6885,-0.925293,0.6885,19.63415,0.6885,-4.573171,0.6885,-0.3048781
0.08179411,0.0,0.69525,0.09179688,0.69525,0.3647461,0.69525,-1.012695,0.69525,9.817074,0.69525,16.95122,0.69525,-2.073171,0.08179411,0.0,0.69525,-0.4008789,0.69525,0.4370117,0.69525,-0.9306641,0.69525,19.14634,0.69525,-5.54878,0.69525,-0.3048781
0.08258823,0.0,0.702,0.09667969,0.702,0.3613281,0.702,-1.013672,0.702,9.390244,0.702,17.31707,0.702,-2.012195,0.08258823,0.0,0.702,-0.4013672,0.702,0.4306641,0.702,-0.934082,0.702,18.65854,0.702,-6.463415,0.702,-0.06097561
0.08338235,0.0,0.70875,0.09570313,0.70875,0.359375,0.70875,-1.013672,0.70875,8.841464,0.70875,17.56098,0.70875,-1.95122,0.08338235,0.0,0.70875,-0.4013672,0.70875,0.4267578,0.70875,-0.934082,0.70875,18.29268,0.70875,-6.829268,0.70875,0.3658537
0.08417647,0.0,0.7155,0.09863281,0.7155,0.3535156,0.7155,-1.013672,0.7155,8.170732,0.7155,17.37805,0.7155,-1.219512,0.08417647,0.0,0.7155,-0.3969727,0.7155,0.425293,0.7155,-0.9326172,0.7155,18.29268,0.7155,-6.95122,0.7155,1.097561
0.08497059,0.0,0.72225,0.1049805,0.72225,0.3535156,0.72225,-1.015137,0.72225,7.865854,0.72225,17.31707,0.72225,-0.7317073,0.08497059,0.0,0.72225,-0.3901367,0.72225,0.4228516,0.72225,-0.9360352,0.72225,18.35366,0.72225,-6.829268,0.72225,1.707317
0.08576471,0.0,0.729,0.1083984,0.729,0.3500977,0.729,-1.013184,0.729,8.292683,0.729,16.95122,0.729,-0.3658537,0.08576471,0.0,0.729,-0.3886719,0.729,0.421875,0.729,-0.9345703,0.729,18.59756,0.729,-6.646342,0.729,1.95122
0.08655882,0.0,0.73575,0.1079102,0.73575,0.3481445,0.73575,-1.009766,0.73575,8.536586,0.73575,16.89024,0.73575,-0.3048781,0.08655882,0.0,0.73575,-0.3881836,0.73575,0.4277344,0.73575,-0.9355469,0.73575,18.84146,0.73575,-6.646342,0.73575,1.646341
0.08735294,0.0,0.7425,0.1069336,0.7425,0.355957,0.7425,-1.009277,0.7425,8.780488,0.7425,16.64634,0.7425,-0.3658537,0.08735294,0.0,0.7425,-0.3857422,0.7425,0.4306641,0.7425,-0.9355469,0.7425,19.08537,0.7425,-6.463415,0.7425,1.52439
0.08814706,0.0,0.74925,0.1108398,0.74925,0.3608398,0.74925,-1.015137,0.74925,8.719512,0.74925,17.13415,0.74925,-0.4268293,0.08814706,0.0,0.74925,-0.3852539,0.74925,0.4345703,0.74925,-0.9321289,0.74925,19.08537,0.74925,-6.219512,0.74925,1.585366
0.08894117,0.0,0.756,0.1113281,0.756,0.3662109,0.756,-1.014648,0.756,8.292683,0.756,17.92683,0.756,-0.4878049,0.08894117,0.0,0.756,-0.3862305,0.756,0.4370117,0.756,-0.9365234,0.756,18.78049,0.756,-5.670732,0.756,1.768293
0.08973529,0.0,0.76275,0.1132813,0.76275,0.3623047,0.76275,-1.013672,0.76275,7.926829,0.76275,17.37805,0.76275,-0.6097561,0.08973529,0.0,0.76275,-0.3818359,0.76275,0.4379883,0.76275,-0.9428711,0.76275,18.17073,0.76275,-5.365854,0.76275,2.073171
0.09052941,0.0,0.7695,0.1210938,0.7695,0.3603516,0.7695,-1.009277,0.7695,7.621952,0.7695,16.15854,0.7695,-0.9146342,0.09052941,0.0,0.7695,-0.378418,0.7695,0.4379883,0.7695,-0.9414063,0.7695,17.9878,0.7695,-5.121951,0.7695,1.890244
0.09132352,0.0,0.77625,0.121582,0.77625,0.3525391,0.77625,-1.001953,0.77625,7.804878,0.77625,15.48781,0.77625,-1.52439,0.09132352,0.0,0.77625,-0.3720703,0.77625,0.4365234,0.77625,-0.9370117,0.77625,17.68293,0.77625,-5.487805,0.77625,1.463415
0.09211764,0.0,0.783,0.1235352,0.783,0.3486328,0.783,-0.9960938,0.783,7.987805,0.783,16.09756,0.783,-2.195122,0.09211764,0.0,0.783,-0.3662109,0.783,0.4321289,0.783,-0.9326172,0.783,17.56098,0.783,-6.585366,0.783,0.7926829
0.09291176,0.0,0.78975,0.1225586,0.78975,0.34375,0.78975,-0.996582,0.78975,8.04878,0.78975,16.70732,0.78975,-2.682927,0.09291176,0.0,0.78975,-0.3647461,0.78975,0.4233398,0.78975,-0.9267578,0.78975,17.37805,0.78975,-7.439024,0.78975,-0.2439024
0.09370588,0.0,0.7965,0.1186523,0.7965,0.3452148,0.7965,-1.000977,0.7965,8.414635,0.7965,18.17073,0.7965,-3.292683,0.09370588,0.0,0.7965,-0.3696289,0.7965,0.4179688,0.7965,-0.9238281,0.7965,17.2561,0.7965,-7.439024,0.7965,-0.6097561
0.0945,0.0,0.80325,0.1166992,0.80325,0.340332,0.80325,-0.9985352,0.80325,8.292683,0.80325,19.02439,0.80325,-3.231707,0.0945,0.0,0.80325,-0.3730469,0.80325,0.4121094,0.80325,-0.9243164,0.80325,17.31707,0.80325,-6.097561,0.80325,-0.5487805
0.09529412,0.0,0.81,0.1123047,0.81,0.3369141,0.81,-0.9995117,0.81,8.292683,0.81,19.14634,0.81,-3.04878,0.09529412,0.0,0.81,-0.375,0.81,0.4121094,0.81,-0.9248047,0.81,17.37805,0.81,-4.390244,0.81,0.0
0.09608823,0.0,0.81675,0.1132813,0.81675,0.3408203,0.81675,-0.9985352,0.81675,8.109756,0.81675,19.20732,0.81675,-2.5,0.09608823,0.0,0.81675,-0.3774414,0.81675,0.4082031,0.81675,-0.9233398,0.81675,17.31707,0.81675,-3.170732,0.81675,0.4878049
0.09688235,0.0,0.8235,0.1118164,0.8235,0.3383789,0.8235,-0.9980469,0.8235,7.865854,0.8235,19.81707,0.8235,-2.317073,0.09688235,0.0,0.8235,-0.3754883,0.8235,0.4077148,0.8235,-0.9233398,0.8235,17.2561,0.8235,-2.743902,0.8235,1.097561
0.09767647,0.0,0.83025,0.1152344,0.83025,0.3364258,0.83025,-0.9960938,0.83025,7.621952,0.83025,20.85366,0.83025,-1.768293,0.09767647,0.0,0.83025,-0.3701172,0.83025,0.4077148,0.83025,-0.918457,0.83025,17.31707,0.83025,-2.256098,0.83025,1.52439
0.09847058,0.0,0.837,0.1171875,0.837,0.3393555,0.837,-0.9931641,0.837,7.865854,0.837,21.95122,0.837,-1.341463,0.09847058,0.0,0.837,-0.3676758,0.837,0.4111328,0.837,-0.9150391,0.837,17.62195,0.837,-1.341463,0.837,1.95122
0.0992647,0.0,0.84375,0.1132813,0.84375,0.3422852,0.84375,-0.9916992,0.84375,7.865854,0.84375,22.98781,0.84375,-1.158537,0.0992647,0.0,0.84375,-0.3745117,0.84375,0.4155273,0.84375,-0.9165039,0.84375,17.80488,0.84375,-0.8536586,0.84375,2.012195
0.1000588,0.0,0.8505,0.1083984,0.8505,0.3457031,0.8505,-0.9941406,0.8505,7.926829,0.8505,23.84146,0.8505,-1.280488,0.1000588,0.0,0.8505,-0.3745117,0.8505,0.421875,0.8505,-0.9140625,0.8505,17.80488,0.8505,-0.1829268,0.8505,1.95122
0.1008529,0.0,0.85725,0.1005859,0.85725,0.3520508,0.85725,-0.9980469,0.85725,8.170732,0.85725,24.5122,0.85725,-1.463415,0.1008529,0.0,0.85725,-0.3828125,0.85725,0.4267578,0.85725,-0.9165039,0.85725,17.92683,0.85725,0.1829268,0.85725,1.890244
0.1016471,0.0,0.864,0.09667969,0.864,0.3569336,0.864,-1.002441,0.864,8.170732,0.864,24.7561,0.864,-1.768293,0.1016471,0.0,0.864,-0.3925781,0.864,0.4311523,0.864,-0.9169922,0.864,17.62195,0.864,0.0,0.864,1.52439
0.1024412,0.0,0.87075,0.08691406,0.87075,0.3569336,0.87075,-1.000488,0.87075,8.170732,0.87075,24.81707,0.87075,-2.012195,0.1024412,0.0,0.87075,-0.4013672,0.87075,0.4311523,0.87075,-0.9194336,0.87075,17.43902,0.87075,-0.6097561,0.87075,1.097561
0.1032353,0.0,0.8775,0.07910156,0.8775,0.3583984,0.8775,-1.008789,0.8775,8.109756,0.8775,23.90244,0.8775,-2.256098,0.1032353,0.0,0.8775,-0.4082031,0.8775,0.4321289,0.8775,-0.9233398,0.8775,17.43902,0.8775,-0.8536586,0.8775,1.097561
0.1040294,0.0,0.88425,0.07177734,0.88425,0.3574219,0.88425,-1.009766,0.88425,8.04878,0.88425,23.23171,0.88425,-2.195122,0.1040294,0.0,0.88425,-0.4165039,0.88425,0.4282227,0.88425,-0.9243164,0.88425,17.19512,0.88425,-1.402439,0.88425,1.219512
0.1048235,0.0,0.891,0.07568359,0.891,0.3569336,0.891,-1.009277,0.891,7.682927,0.891,21.46342,0.891,-1.829268,0.1048235,0.0,0.891,-0.4160156,0.891,0.4272461,0.891,-0.9287109,0.891,17.31707,0.891,-2.134146,0.891,1.341463
0.1056176,0.0,0.89775,0.08105469,0.89775,0.3603516,0.89775,-1.013672,0.89775,7.317073,0.89775,20.2439,0.89775,-1.585366,0.1056176,0.0,0.89775,-0.4116211,0.89775,0.4282227,0.89775,-0.9291992,0.89775,17.13415,0.89775,-2.865854,0.89775,1.768293
0.1064118,0.0,0.9045,0.08691406,0.9045,0.3613281,0.9045,-1.012207,0.9045,7.073171,0.9045,18.90244,0.9045,-1.341463,0.1064118,0.0,0.9045,-0.4033203,0.9045,0.4316406,0.9045,-0.9291992,0.9045,17.13415,0.9045,-3.902439,0.9045,1.95122
0.1072059,0.0,0.91125,0.09179688,0.91125,0.3657227,0.91125,-1.010742,0.91125,7.195122,0.91125,17.92683,0.91125,-1.097561,0.1072059,0.0,0.91125,-0.3979492,0.91125,0.4404297,0.91125,-0.9248047,0.91125,17.13415,0.91125,-4.207317,0.91125,1.95122
0.108,-0.0002700694,0.918,0.1020508,0.918,0.3657227,0.918,-1.003906,0.918,7.195122,0.918,17.5,0.918,-1.280488,0.108,-2.400244e-05,0.918,-0.3920898,0.918,0.4462891,0.918,-0.9243164,0.918,17.13415,0.918,-4.329268,0.918,1.768293
0.1087941,-0.0001743954,0.92475,0.1064453,0.92475,0.3710938,0.92475,-1.000977,0.92475,7.256098,0.92475,17.2561,0.92475,-1.585366,0.1087941,-2.568093e-05,0.92475,-0.387207,0.92475,0.4516602,0.92475,-0.9248047,0.92475,16.95122,0.92475,-4.390244,0.92475,1.463415
0.1095882,-7.872129e-05,0.9315,0.1074219,0.9315,0.3706055,0.9315,-1.002441,0.9315,7.134147,0.9315,17.13415,0.9315,-2.195122,0.1095882,-2.635233e-05,0.9315,-0.3813477,0.9315,0.4482422,0.9315,-0.9248047,0.9315,16.76829,0.9315,-4.634146,0.9315,0.7926829
0.1103823,-1.393149e-05,0.93825,0.112793,0.93825,0.3696289,0.93825,-0.9980469,0.93825,7.256098,0.93825,17.31707,0.93825,-2.987805,0.1103823,-2.433814e-05,0.93825,-0.3823242,0.93825,0.4472656,0.93825,-0.9248047,0.93825,16.40244,0.93825,-5.304878,0.93825,0.3658537
0.1111765,9.735256e-06,0.945,0.112793,0.945,0.3647461,0.945,-1.000488,0.945,7.134147,0.945,17.86585,0.945,-3.47561,0.1111765,-2.467384e-05,0.945,-0.3818359,0.945,0.4423828,0.945,-0.9233398,0.945,16.15854,0.945,-5.792683,0.945,-0.1219512
0.1119706,1.460288e-05,0.95175,0.1132813,0.95175,0.3579102,0.95175,-0.9970703,0.95175,7.073171,0.95175,18.17073,0.95175,-3.719512,0.1119706,-2.265965e-05,0.95175,-0.3798828,0.95175,0.4370117,0.95175,-0.9272461,0.95175,16.21951,0.95175,-5.670732,0.95175,-0.3048781
0.1127647,3.20592e-05,0.9585,0.1103516,0.9585,0.355957,0.9585,-0.9951172,0.9585,7.195122,0.9585,17.80488,0.9585,-3.658537,0.1127647,-2.568093e-05,0.9585,-0.3769531,0.9585,0.4326172,0.9585,-0.9243164,0.9585,15.91463,0.9585,-5.54878,0.9585,-0.3658537
0.1135588,0.0001455253,0.96525,0.109375,0.96525,0.3520508,0.96525,-0.9897461,0.96525,7.195122,0.96525,17.13415,0.96525,-3.658537,0.1135588,-2.366674e-05,0.96525,-0.3764648,0.96525,0.4272461,0.96525,-0.9194336,0.96525,16.21951,0.96525,-5.487805,0.96525,-0.3048781
0.1143529,0.0002636912,0.972,0.1123047,0.972,0.3486328,0.972,-0.987793,0.972,7.317073,0.972,16.82927,0.972,-3.414634,0.1143529,-2.1149e-05,0.972,-0.3735352,0.972,0.4228516,0.972,-0.9213867,0.972,16.46342,0.972,-5.792683,0.972,-0.1829268
0.1151471,0.0002485847,0.97875,0.1166992,0.97875,0.3461914,0.97875,-0.9824219,0.97875,7.439024,0.97875,17.19512,0.97875,-3.170732,0.1151471,-1.795987e-05,0.97875,-0.3730469,0.97875,0.421875,0.97875,-0.9169922,0.97875,16.64634,0.97875,-6.280488,0.97875,-0.1219512
0.1159412,0.0001864805,0.9855,0.1166992,0.9855,0.3461914,0.9855,-0.984375,0.9855,7.621952,0.9855,17.86585,0.9855,-3.170732,0.1159412,-1.493858e-05,0.9855,-0.3701172,0.9855,0.4208984,0.9855,-0.9101563,0.9855,16.95122,0.9855,-6.280488,0.9855,-0.06097561
0.1167353,9.567407e-05,0.99225,0.1171875,0.99225,0.3481445,0.99225,-0.9858398,0.99225,8.04878,0.99225,19.14634,0.99225,-3.04878,0.1167353,-1.560998e-05,0.99225,-0.3671875,0.99225,0.421875,0.99225,-0.9082031,0.99225,16.95122,0.99225,-5.914634,0.99225,-0.06097561
0.1175294,-2.836652e-05,0.999,0.1123047,0.999,0.3481445,0.999,-0.9853516,0.999,8.231708,0.999,20.12195,0.999,-2.743902,0.1175294,-1.628138e-05,0.999,-0.3701172,0.999,0.4204102,0.999,-0.909668,0.999,17.37805,0.999,-4.512195,0.999,0.06097561
0.1183235,-0.0001414969,1.00575,0.1108398,1.00575,0.3486328,1.00575,-0.9863281,1.00575,8.292683,1.00575,20.60976,1.00575,-2.560976,0.1183235,-2.433814e-05,1.00575,-0.3701172,1.00575,0.4189453,1.00575,-0.9135742,1.00575,17.5,1.00575,-3.170732,1.00575,0.3048781
0.1191176,-0.0001935302,1.0125,0.1113281,1.0125,0.347168,1.0125,-0.9838867,1.0125,8.536586,1.0125,21.03659,1.0125,-2.378049,0.1191176,-3.004501e-05,1.0125,-0.3720703,1.0125,0.4204102,1.0125,-0.909668,1.0125,17.56098,1.0125,-2.439024,1.0125,0.4268293
0.1199118,-0.0002077974,1.01925,0.1079102,1.01925,0.3447266,1.01925,-0.984375,1.01925,8.841464,1.01925,21.58537,1.01925,-2.5,0.1199118,-2.652018e-05,1.01925,-0.3740234,1.01925,0.4199219,1.01925,-0.9135742,1.01925,17.92683,1.01925,-2.317073,1.01925,0.1829268
0.1207059,-0.000197055,1.026,0.1010742,1.026,0.3447266,1.026,-0.9838867,1.026,9.390244,1.026,21.64634,1.026,-2.621951,0.1207059,-2.870222e-05,1.026,-0.3764648,1.026,0.421875,1.026,-0.9135742,1.026,18.35366,1.026,-2.682927,1.026,-0.06097561
0.1215,-0.0002077974,1.03275,0.09667969,1.03275,0.3466797,1.03275,-0.9853516,1.03275,9.817074,1.03275,21.15854,1.03275,-2.743902,0.1215,-2.568093e-05,1.03275,-0.3793945,1.03275,0.4213867,1.03275,-0.9121094,1.03275,18.59756,1.03275,-2.5,1.03275,-0.3658537
0.1222941,-0.0003093462,1.0395,0.09863281,1.0395,0.3525391,1.0395,-0.9873047,1.0395,9.939025,1.0395,21.03659,1.0395,-2.560976,0.1222941,-2.517739e-05,1.0395,-0.3847656,1.0395,0.4223633,1.0395,-0.9130859,1.0395,18.71951,1.0395,-2.682927,1.0395,-0.5487805
0.1230882,-0.0003160601,1.04625,0.09619141,1.04625,0.3520508,1.04625,-0.9907227,1.04625,10.0,1.04625,21.64634,1.04625,-2.5,0.1230882,-2.601663e-05,1.04625,-0.3862305,1.04625,0.4223633,1.04625,-0.909668,1.04625,18.71951,1.04625,-2.987805,1.04625,-0.6097561
0.1238824,-0.0002529488,1.053,0.09960938,1.053,0.3461914,1.053,-0.9907227,1.053,10.06098,1.053,21.95122,1.053,-2.439024,0.1238824,-2.584878e-05,1.053,-0.3901367,1.053,0.421875,1.053,-0.9116211,1.053,19.08537,1.053,-3.109756,1.053,-0.3048781
0.1246765,-0.0001743954,1.05975,0.09228516,1.05975,0.3481445,1.05975,-0.9941406,1.05975,10.18293,1.05975,22.0122,1.05975,-2.439024,0.1246765,-2.299535e-05,1.05975,-0.3886719,1.05975,0.4243164,1.05975,-0.9111328,1.05975,19.08537,1.05975,-2.865854,1.05975,-0.3048781
0.1254706,-2.333104e-05,1.0665,0.09521484,1.0665,0.3491211,1.0665,-0.9936523,1.0665,10.36585,1.0665,21.58537,1.0665,-2.317073,0.1254706,-2.568093e-05,1.0665,-0.3911133,1.0665,0.4238281,1.0665,-0.9125977,1.0665,19.45122,1.0665,-2.682927,1.0665,-0.4268293
0.1262647,8.073549e-05,1.07325,0.09375,1.07325,0.3535156,1.07325,-0.996582,1.07325,10.48781,1.07325,20.85366,1.07325,-2.317073,0.1262647,-3.038071e-05,1.07325,-0.3945313,1.07325,0.4262695,1.07325,-0.9179688,1.07325,19.7561,1.07325,-2.926829,1.07325,-0.4268293
0.1270588,9.617762e-05,1.08,0.09179688,1.08,0.3549805,1.08,-0.9956055,1.08,10.79268,1.08,20.0,1.08,-2.317073,0.1270588,-2.903792e-05,1.08,-0.3964844,1.08,0.4306641,1.08,-0.9160156,1.08,19.69512,1.08,-3.292683,1.08,-0.4268293
0.1278529,0.0001205158,1.08675,0.09082031,1.08675,0.3618164,1.08675,-0.9970703,1.08675,10.48781,1.08675,19.26829,1.08675,-2.073171,0.1278529,-2.450599e-05,1.08675,-0.4008789,1.08675,0.4350586,1.08675,-0.9160156,1.08675,19.39024,1.08675,-4.268293,1.08675,-0.4268293
0.1286471,0.0001560998,1.0935,0.09228516,1.0935,0.3642578,1.0935,-1.000488,1.0935,10.0,1.0935,19.02439,1.0935,-1.95122,0.1286471,-2.970932e-05,1.0935,-0.3959961,1.0935,0.4379883,1.0935,-0.9165039,1.0935,19.45122,1.0935,-5.060976,1.0935,-0.2439024
0.1294412,0.0001468681,1.10025,0.09179688,1.10025,0.3652344,1.10025,-1.003906,1.10025,9.756098,1.10025,19.08537,1.10025,-2.012195,0.1294412,-2.970932e-05,1.10025,-0.3994141,1.10025,0.4428711,1.10025,-0.9160156,1.10025,19.20732,1.10025,-5.121951,1.10025,-0.1219512
0.1302353,0.0002286107,1.107,0.09472656,1.107,0.3652344,1.107,-1.002441,1.107,9.390244,1.107,18.59756,1.107,-1.95122,0.1302353,-2.366674e-05,1.107,-0.3935547,1.107,0.4389648,1.107,-0.9243164,1.107,18.96342,1.107,-5.609756,1.107,0.06097561
0.1310294,0.0003199207,1.11375,0.1005859,1.11375,0.3613281,1.11375,-1.003906,1.11375,9.268292,1.11375,17.86585,1.11375,-2.134146,0.1310294,-2.316319e-05,1.11375,-0.3891602,1.11375,0.4355469,1.11375,-0.9282227,1.11375,18.71951,1.11375,-5.609756,1.11375,0.06097561
0.1318235,0.0003019608,1.1205,0.1035156,1.1205,0.3574219,1.1205,-1.004883,1.1205,9.085366,1.1205,17.5,1.1205,-2.317073,0.1318235,-2.652018e-05,1.1205,-0.3896484,1.1205,0.4335938,1.1205,-0.9257813,1.1205,18.41463,1.1205,-5.792683,1.1205,0.06097561
0.1326177,0.0002559701,1.12725,0.1054688,1.12725,0.3540039,1.12725,-1.006348,1.12725,9.085366,1.12725,17.7439,1.12725,-2.5,0.1326177,-2.165255e-05,1.12725,-0.387207,1.12725,0.4301758,1.12725,-0.9272461,1.12725,18.29268,1.12725,-5.97561,1.12725,-0.3048781
0.1334118,0.0001619745,1.134,0.105957,1.134,0.3540039,1.134,-1.008789,1.134,9.329268,1.134,18.29268,1.134,-2.5,0.1334118,-2.165255e-05,1.134,-0.387207,1.134,0.4282227,1.134,-0.9301758,1.134,18.53658,1.134,-6.036585,1.134,-0.4268293
0.1342059,4.985122e-05,1.14075,0.1074219,1.14075,0.3569336,1.14075,-1.01123,1.14075,9.207317,1.14075,18.23171,1.14075,-2.621951,0.1342059,-2.198825e-05,1.14075,-0.3911133,1.14075,0.4277344,1.14075,-0.9331055,1.14075,18.35366,1.14075,-5.731708,1.14075,-0.3658537
0.135,-1.695277e-05,1.1475,0.1064453,1.1475,0.3544922,1.1475,-1.011719,1.1475,9.207317,1.1475,17.62195,1.1475,-2.378049,0.135,-2.232395e-05,1.1475,-0.3881836,1.1475,0.4262695,1.1475,-0.9384766,1.1475,18.47561,1.1475,-5.060976,1.1475,-0.3048781
0.1357941,-6.596475e-05,1.15425,0.109375,1.15425,0.3520508,1.15425,-1.01123,1.15425,9.02439,1.15425,16.95122,1.15425,-2.439024,0.1357941,-2.383459e-05,1.15425,-0.3881836,1.15425,0.4277344,1.15425,-0.9375,1.15425,18.35366,1.15425,-5.060976,1.15425,-0.2439024
0.1365882,-0.00010692,1.161,0.1137695,1.161,0.3515625,1.161,-1.005859,1.161,9.02439,1.161,16.58537,1.161,-2.560976,0.1365882,-2.232395e-05,1.161,-0.3803711,1.161,0.4296875,1.161,-0.9399414,1.161,18.29268,1.161,-5.792683,1.161,-0.4268293
0.1373824,-0.00013579,1.16775,0.1152344,1.16775,0.3520508,1.16775,-1.007813,1.16775,8.963415,1.16775,15.91463,1.16775,-2.865854,0.1373824,-2.517739e-05,1.16775,-0.3847656,1.16775,0.4267578,1.16775,-0.9418945,1.16775,18.17073,1.16775,-6.52439,1.16775,-0.5487805
0.1381765,-0.0001787594,1.1745,0.1220703,1.1745,0.3520508,1.1745,-1.006836,1.1745,8.780488,1.1745,15.73171,1.1745,-2.865854,0.1381765,-2.316319e-05,1.1745,-0.378418,1.1745,0.4277344,1.1745,-0.9404297,1.1745,17.80488,1.1745,-7.317073,1.1745,-0.7926829
0.1389706,-0.0003163958,1.18125,0.1245117,1.18125,0.3491211,1.18125,-1.008789,1.18125,8.47561,1.18125,15.73171,1.18125,-2.926829,0.1389706,-2.098116e-05,1.18125,-0.371582,1.18125,0.4267578,1.18125,-0.9399414,1.18125,17.62195,1.18125,-7.865854,1.18125,-0.7317073
0.1397647,-0.0003647364,1.188,0.1254883,1.188,0.3525391,1.188,-1.003418,1.188,8.353659,1.188,16.09756,1.188,-3.170732,0.1397647,-2.366674e-05,1.188,-0.3686523,1.188,0.4257813,1.188,-0.9350586,1.188,17.2561,1.188,-7.256098,1.188,-0.6707317
0.1405588,-0.0003101854,1.19475,0.1269531,1.19475,0.347168,1.19475,-0.9985352,1.19475,8.170732,1.19475,16.82927,1.19475,-3.04878,0.1405588,-2.030976e-05,1.19475,-0.3642578,1.19475,0.4243164,1.19475,-0.9296875,1.19475,17.13415,1.19475,-6.219512,1.19475,-0.6097561
0.1413529,-0.000237171,1.2015,0.1298828,1.2015,0.3447266,1.2015,-0.9960938,1.2015,8.414635,1.2015,17.31707,1.2015,-3.414634,0.1413529,-1.510643e-05,1.2015,-0.3598633,1.2015,0.4257813,1.2015,-0.9248047,1.2015,17.37805,1.2015,-4.939024,1.2015,-0.7317073
0.1421471,-0.0001388113,1.20825,0.1264648,1.20825,0.3505859,1.20825,-0.9951172,1.20825,8.780488,1.20825,18.59756,1.20825,-3.47561,0.1421471,-1.628138e-05,1.20825,-0.3583984,1.20825,0.4257813,1.20825,-0.9248047,1.20825,17.5,1.20825,-4.390244,1.20825,-0.6707317
0.1429412,-4.179446e-05,1.215,0.1220703,1.215,0.3510742,1.215,-0.9980469,1.215,9.02439,1.215,19.63415,1.215,-3.597561,0.1429412,-1.661708e-05,1.215,-0.3652344,1.215,0.4267578,1.215,-0.925293,1.215,17.7439,1.215,-3.597561,1.215,-0.9756098
0.1437353,2.098116e-05,1.22175,0.1152344,1.22175,0.3500977,1.22175,-0.9926758,1.22175,9.268292,1.22175,20.12195,1.22175,-3.841464,0.1437353,-1.829557e-05,1.22175,-0.371582,1.22175,0.4267578,1.22175,-0.9233398,1.22175,17.86585,1.22175,-3.04878,1.22175,-1.036585
0.1445294,3.508049e-05,1.2285,0.1118164,1.2285,0.3544922,1.2285,-0.9931641,1.2285,9.268292,1.2285,19.93902,1.2285,-3.902439,0.1445294,-1.829557e-05,1.2285,-0.3740234,1.2285,0.4267578,1.2285,-0.9199219,1.2285,17.7439,1.2285,-2.987805,1.2285,-1.036585
0.1453235,5.001907e-05,1.23525,0.1074219,1.23525,0.3525391,1.23525,-0.9936523,1.23525,9.02439,1.23525,20.0,1.23525,-3.780488,0.1453235,-1.762417e-05,1.23525,-0.3779297,1.23525,0.4291992,1.23525,-0.9194336,1.23525,17.7439,1.23525,-3.231707,1.23525,-1.341463
0.1461176,6.378271e-05,1.242,0.1069336,1.242,0.3549805,1.242,-0.9980469,1.242,8.902439,1.242,20.85366,1.242,-3.963415,0.1461176,-2.131685e-05,1.242,-0.3793945,1.242,0.4267578,1.242,-0.9204102,1.242,17.37805,1.242,-3.597561,1.242,-0.9756098
0.1469118,0.0001824521,1.24875,0.1054688,1.24875,0.355957,1.24875,-0.9995117,1.24875,8.841464,1.24875,21.34146,1.24875,-3.841464,0.1469118,-2.030976e-05,1.24875,-0.3842773,1.24875,0.4287109,1.24875,-0.9208984,1.24875,17.37805,1.24875,-3.597561,1.24875,-0.8536586
0.1477059,0.0002997787,1.2555,0.1054688,1.2555,0.3549805,1.2555,-0.9970703,1.2555,8.47561,1.2555,20.85366,1.2555,-3.536585,0.1477059,-1.896696e-05,1.2555,-0.3798828,1.2555,0.4277344,1.2555,-0.9223633,1.2555,17.13415,1.2555,-3.109756,1.2555,-0.3048781
0.1485,0.0002858473,1.26225,0.1064453,1.26225,0.3510742,1.26225,-0.996582,1.26225,8.231708,1.26225,20.0,1.26225,-3.170732,0.1485,-1.560998e-05,1.26225,-0.378418,1.26225,0.4277344,1.26225,-0.9213867,1.26225,17.2561,1.26225,-2.743902,1.26225,-0.1219512
0.1492941,0.0002207217,1.269,0.1103516,1.269,0.3500977,1.269,-0.9902344,1.269,8.292683,1.269,19.63415,1.269,-3.47561,0.1492941,-1.728847e-05,1.269,-0.378418,1.269,0.4257813,1.269,-0.9179688,1.269,17.13415,1.269,-2.926829,1.269,-0.3658537
0.1500882,0.0001205158,1.27575,0.1083984,1.27575,0.3510742,1.27575,-0.9882813,1.27575,8.719512,1.27575,20.42683,1.27575,-3.658537,0.1500882,-2.098116e-05,1.27575,-0.3764648,1.27575,0.425293,1.27575,-0.9101563,1.27575,17.43902,1.27575,-3.47561,1.27575,-0.7317073
0.1508823,1.292439e-05,1.2825,0.1044922,1.2825,0.3535156,1.2825,-0.9897461,1.2825,9.146341,1.2825,21.70732,1.2825,-3.841464,0.1508823,-2.265965e-05,1.2825,-0.3803711,1.2825,0.4291992,1.2825,-0.9091797,1.2825,17.80488,1.2825,-3.414634,1.2825,-1.097561
0.1516765,-4.347295e-05,1.28925,0.09863281,1.28925,0.3544922,1.28925,-0.9926758,1.28925,9.45122,1.28925,22.80488,1.28925,-3.963415,0.1516765,-2.064546e-05,1.28925,-0.3847656,1.28925,0.4272461,1.28925,-0.9106445,1.28925,17.80488,1.28925,-2.621951,1.28925,-1.219512
0.1524706,-7.267872e-05,1.296,0.09326172,1.296,0.3574219,1.296,-1.000488,1.296,9.45122,1.296,22.86585,1.296,-3.780488,0.1524706,-1.829557e-05,1.296,-0.3955078,1.296,0.4301758,1.296,-0.9169922,1.296,17.80488,1.296,-1.646341,1.296,-1.219512
0.1532647,-0.0001059129,1.30275,0.09423828,1.30275,0.3583984,1.30275,-1.003906,1.30275,9.268292,1.30275,22.07317,1.30275,-3.719512,0.1532647,-1.913481e-05,1.30275,-0.3955078,1.30275,0.4306641,1.30275,-0.9208984,1.30275,17.37805,1.30275,-0.9146342,1.30275,-0.7926829
0.1540588,-0.0001327687,1.3095,0.09179688,1.3095,0.359375,1.3095,-1.005859,1.3095,8.963415,1.3095,21.34146,1.3095,-3.597561,0.1540588,-2.433814e-05,1.3095,-0.3984375,1.3095,0.4335938,1.3095,-0.921875,1.3095,17.5,1.3095,-1.036585,1.3095,-0.7317073
0.1548529,-0.0001633173,1.31625,0.08935547,1.31625,0.3569336,1.31625,-1.005371,1.31625,8.841464,1.31625,20.73171,1.31625,-3.597561,0.1548529,-2.635233e-05,1.31625,-0.3955078,1.31625,0.4311523,1.31625,-0.9243164,1.31625,17.37805,1.31625,-1.768293,1.31625,-0.9146342
0.1556471,-0.0002942397,1.323,0.09472656,1.323,0.359375,1.323,-1.00293,1.323,9.02439,1.323,20.42683,1.323,-3.780488,0.1556471,-2.702373e-05,1.323,-0.3984375,1.323,0.4316406,1.323,-0.9213867,1.323,17.37805,1.323,-1.95122,1.323,-0.9756098
0.1564412,-0.0003378805,1.32975,0.09423828,1.32975,0.3608398,1.32975,-1.001953,1.32975,8.963415,1.32975,20.30488,1.32975,-3.902439,0.1564412,-2.568093e-05,1.32975,-0.3989258,1.32975,0.434082,1.32975,-0.9233398,1.32975,17.5,1.32975,-2.5,1.32975,-1.158537
0.1572353,-0.0002875258,1.3365,0.09326172,1.3365,0.3637695,1.3365,-1.003418,1.3365,8.658537,1.3365,20.30488,1.3365,-3.719512,0.1572353,-2.433814e-05,1.3365,-0.3984375,1.3365,0.4360352,1.3365,-0.9208984,1.3365,17.5,1.3365,-3.04878,1.3365,-1.097561
0.1580294,-0.0002103151,1.34325,0.09277344,1.34325,0.3652344,1.34325,-1.001953,1.34325,8.536586,1.34325,20.4878,1.34325,-3.719512,0.1580294,-2.333104e-05,1.34325,-0.3989258,1.34325,0.4365234,1.34325,-0.9223633,1.34325,17.5,1.34325,-3.47561,1.34325,-0.9146342
0.1588235,-0.0001294118,1.35,0.09277344,1.35,0.3632813,1.35,-1.004883,1.35,8.658537,1.35,20.54878,1.35,-3.719512,0.1588235,-2.131685e-05,1.35,-0.4003906,1.35,0.4335938,1.35,-0.9223633,1.35,17.43902,1.35,-3.719512,1.35,-0.7926829
0.1596176,-4.515145e-05,1.35675,0.09521484,1.35675,0.3632813,1.35675,-1.003906,1.35675,8.841464,1.35675,20.54878,1.35675,-3.841464,0.1596176,-1.963836e-05,1.35675,-0.3979492,1.35675,0.4335938,1.35675,-0.9248047,1.35675,17.56098,1.35675,-3.902439,1.35675,-0.8536586
0.1604118,2.265965e-05,1.3635,0.09228516,1.3635,0.3579102,1.3635,-1.005859,1.3635,9.146341,1.3635,20.06098,1.3635,-3.841464,0.1604118,-2.165255e-05,1.3635,-0.4003906,1.3635,0.4321289,1.3635,-0.9267578,1.3635,17.68293,1.3635,-4.146341,1.3635,-1.219512
0.1612059,5.287251e-05,1.37025,0.09130859,1.37025,0.3579102,1.37025,-1.007324,1.37025,9.085366,1.37025,19.08537,1.37025,-3.841464,0.1612059,-2.383459e-05,1.37025,-0.4067383,1.37025,0.4301758,1.37025,-0.9233398,1.37025,17.68293,1.37025,-4.512195,1.37025,-1.463415
0.162,8.308538e-05,1.377,0.08886719,1.377,0.3588867,1.377,-1.004395,1.377,9.02439,1.377,17.62195,1.377,-3.658537,0.162,-2.433814e-05,1.377,-0.4038086,1.377,0.4301758,1.377,-0.9272461,1.377,17.56098,1.377,-5.060976,1.377,-1.219512
0.1627941,0.0001070878,1.38375,0.09082031,1.38375,0.3588867,1.38375,-1.002441,1.38375,8.780488,1.38375,16.52439,1.38375,-3.292683,0.1627941,-2.165255e-05,1.38375,-0.3994141,1.38375,0.4272461,1.38375,-0.925293,1.38375,17.80488,1.38375,-5.670732,1.38375,-0.9146342
0.1635882,0.0002197147,1.3905,0.09814453,1.3905,0.355957,1.3905,-0.9995117,1.3905,8.841464,1.3905,15.97561,1.3905,-2.682927,0.1635882,-2.366674e-05,1.3905,-0.3955078,1.3905,0.425293,1.3905,-0.918457,1.3905,17.92683,1.3905,-6.463415,1.3905,-0.5487805
0.1643824,0.0003259632,1.39725,0.1005859,1.39725,0.355957,1.39725,-0.9956055,1.39725,8.902439,1.39725,16.21951,1.39725,-2.621951,0.1643824,-2.719158e-05,1.39725,-0.3876953,1.39725,0.4311523,1.39725,-0.9150391,1.39725,18.10976,1.39725,-7.012195,1.39725,-0.4268293
0.1651765,0.0003190814,1.404,0.1054688,1.404,0.359375,1.404,-0.9916992,1.404,9.146341,1.404,16.52439,1.404,-2.743902,0.1651765,-2.786297e-05,1.404,-0.3813477,1.404,0.4311523,1.404,-0.9140625,1.404,18.29268,1.404,-6.829268,1.404,-0.7317073
0.1659706,0.0002935683,1.41075,0.1069336,1.41075,0.3530273,1.41075,-0.9912109,1.41075,9.207317,1.41075,16.58537,1.41075,-2.743902,0.1659706,-2.568093e-05,1.41075,-0.3789063,1.41075,0.4331055,1.41075,-0.9140625,1.41075,18.47561,1.41075,-6.097561,1.41075,-0.7926829
0.1667647,0.0002099794,1.4175,0.1103516,1.4175,0.3574219,1.4175,-0.9887695,1.4175,9.512196,1.4175,16.82927,1.4175,-2.926829,0.1667647,-1.997406e-05,1.4175,-0.375,1.4175,0.4311523,1.4175,-0.9140625,1.4175,18.53658,1.4175,-5.97561,1.4175,-1.036585
0.1675588,6.227207e-05,1.42425,0.1132813,1.42425,0.3530273,1.42425,-0.987793,1.42425,9.756098,1.42425,17.43902,1.42425,-3.231707,0.1675588,-1.930266e-05,1.42425,-0.375,1.42425,0.4272461,1.42425,-0.9174805,1.42425,18.65854,1.42425,-5.97561,1.42425,-1.341463
0.1683529,-2.433814e-05,1.431,0.1123047,1.431,0.3515625,1.431,-0.9897461,1.431,10.18293,1.431,18.04878,1.431,-3.536585,0.1683529,-1.829557e-05,1.431,-0.378418,1.431,0.4267578,1.431,-0.9135742,1.431,18.78049,1.431,-5.914634,1.431,-1.585366
0.1691471,-4.800488e-05,1.43775,0.1083984,1.43775,0.3520508,1.43775,-0.9916992,1.43775,10.42683,1.43775,18.29268,1.43775,-3.597561,0.1691471,-1.963836e-05,1.43775,-0.378418,1.43775,0.4267578,1.43775,-0.9160156,1.43775,18.90244,1.43775,-5.853659,1.43775,-1.768293
0.1699412,-7.133593e-05,1.4445,0.1069336,1.4445,0.3520508,1.4445,-0.9912109,1.4445,10.48781,1.4445,18.41463,1.4445,-3.536585,0.1699412,-2.366674e-05,1.4445,-0.3789063,1.4445,0.4228516,1.4445,-0.9155273,1.4445,19.02439,1.4445,-5.365854,1.4445,-1.890244
0.1707353,-8.778516e-05,1.45125,0.1030273,1.45125,0.3496094,1.45125,-0.9946289,1.45125,10.36585,1.45125,18.23171,1.45125,-3.414634,0.1707353,-2.568093e-05,1.45125,-0.3833008,1.45125,0.421875,1.45125,-0.9174805,1.45125,18.84146,1.45125,-4.878049,1.45125,-1.768293
0.1715294,-0.000139147,1.458,0.1020508,1.458,0.3500977,1.458,-0.9926758,1.458,10.18293,1.458,18.04878,1.458,-3.353659,0.1715294,-2.719158e-05,1.458,-0.3847656,1.458,0.4204102,1.458,-0.9169922,1.458,19.02439,1.458,-5.0,1.458,-1.280488
0.1723235,-0.0002851759,1.46475,0.1030273,1.46475,0.3491211,1.46475,-0.9897461,1.46475,10.06098,1.46475,18.17073,1.46475,-2.987805,0.1723235,-2.836652e-05,1.46475,-0.3837891,1.46475,0.4194336,1.46475,-0.9145508,1.46475,18.90244,1.46475,-5.487805,1.46475,-1.097561
0.1731176,-0.0003526513,1.4715,0.1049805,1.4715,0.3491211,1.4715,-0.9916992,1.4715,9.756098,1.4715,18.65854,1.4715,-2.621951,0.1731176,-2.668803e-05,1.4715,-0.3803711,1.4715,0.4165039,1.4715,-0.9174805,1.4715,18.84146,1.4715,-5.914634,1.4715,-0.7317073
0.1739118,-0.0002999466,1.47825,0.1035156,1.47825,0.3481445,1.47825,-0.9907227,1.47825,9.939025,1.47825,19.14634,1.47825,-2.195122,0.1739118,-2.735943e-05,1.47825,-0.3833008,1.47825,0.4160156,1.47825,-0.9174805,1.47825,19.14634,1.47825,-5.670732,1.47825,-0.3048781
0.1747059,-0.0002089723,1.485,0.105957,1.485,0.3466797,1.485,-0.9960938,1.485,10.12195,1.485,19.5122,1.485,-1.890244,0.1747059,-3.508049e-05,1.485,-0.3828125,1.485,0.4155273,1.485,-0.9160156,1.485,19.39024,1.485,-5.0,1.485,-0.06097561
0.1755,-0.0001037308,1.49175,0.105957,1.49175,0.347168,1.49175,-0.9975586,1.49175,10.30488,1.49175,19.69512,1.49175,-1.829268,0.1755,-4.280156e-05,1.49175,-0.3808594,1.49175,0.4169922,1.49175,-0.9213867,1.49175,19.63415,1.49175,-4.390244,1.49175,0.06097561
0.1762941,-1.225299e-05,1.4985,0.1025391,1.4985,0.3452148,1.4985,-1.000488,1.4985,10.60976,1.4985,20.18293,1.4985,-2.073171,0.1762941,-4.246586e-05,1.4985,-0.3833008,1.4985,0.4213867,1.4985,-0.9248047,1.4985,19.81707,1.4985,-3.780488,1.4985,-0.5487805
0.1770882,4.750134e-05,1.50525,0.1020508,1.50525,0.3476563,1.50525,-1.004395,1.50525,10.97561,1.50525,20.06098,1.50525,-2.560976,0.1770882,-3.474479e-05,1.50525,-0.3881836,1.50525,0.4233398,1.50525,-0.9257813,1.50525,19.87805,1.50525,-3.47561,1.50525,-0.7926829
0.1778823,7.888914e-05,1.512,0.09716797,1.512,0.3525391,1.512,-1.004395,1.512,10.91463,1.512,20.18293,1.512,-2.621951,0.1778823,-2.500954e-05,1.512,-0.3920898,1.512,0.4257813,1.512,-0.9272461,1.512,19.69512,1.512,-3.414634,1.512,-1.097561
0.1786765,9.483482e-05,1.51875,0.09765625,1.51875,0.3554688,1.51875,-1.01123,1.51875,10.42683,1.51875,19.63415,1.51875,-2.743902,0.1786765,-1.426719e-05,1.51875,-0.3979492,1.51875,0.4291992,1.51875,-0.9301758,1.51875,19.32927,1.51875,-3.597561,1.51875,-0.9146342
0.1794706,0.0001065843,1.5255,0.09619141,1.5255,0.3574219,1.5255,-1.009766,1.5255,10.30488,1.5255,19.5122,1.5255,-2.560976,0.1794706,-2.853437e-06,1.5255,-0.4023438,1.5255,0.4311523,1.5255,-0.9306641,1.5255,19.20732,1.5255,-4.02439,1.5255,-0.7926829
0.1802647,0.0002012512,1.53225,0.09521484,1.53225,0.3588867,1.53225,-1.011719,1.53225,9.756098,1.53225,19.02439,1.53225,-2.439024,0.1802647,-8.392462e-07,1.53225,-0.4008789,1.53225,0.4311523,1.53225,-0.9326172,1.53225,18.71951,1.53225,-4.939024,1.53225,-0.4268293
0.1810588,0.0002935683,1.539,0.09716797,1.539,0.3554688,1.539,-1.012207,1.539,9.329268,1.539,18.17073,1.539,-2.256098,0.1810588,-5.539025e-06,1.539,-0.3984375,1.539,0.4321289,1.539,-0.934082,1.539,18.65854,1.539,-5.121951,1.539,-0.1219512
0.1818529,0.0002811475,1.54575,0.1020508,1.54575,0.3520508,1.54575,-1.012207,1.54575,8.780488,1.54575,17.5,1.54575,-2.5,0.1818529,-9.903105e-06,1.54575,-0.3920898,1.54575,0.4316406,1.54575,-0.9360352,1.54575,18.29268,1.54575,-5.670732,1.54575,-0.1829268
0.182647,0.0002398566,1.5525,0.109375,1.5525,0.3520508,1.5525,-1.013184,1.5525,8.780488,1.5525,16.89024,1.5525,-2.743902,0.182647,-1.225299e-05,1.5525,-0.3891602,1.5525,0.4301758,1.5525,-0.9375,1.5525,18.04878,1.5525,-5.97561,1.5525,-0.3658537
0.1834412,0.0001305867,1.55925,0.1137695,1.55925,0.3505859,1.55925,-1.014648,1.55925,8.414635,1.55925,16.64634,1.55925,-2.987805,0.1834412,-1.762417e-05,1.55925,-0.3862305,1.55925,0.4296875,1.55925,-0.9399414,1.55925,17.68293,1.55925,-6.036585,1.55925,-0.5487805
0.1842353,-5.874723e-06,1.566,0.1166992,1.566,0.3491211,1.566,-1.007324,1.566,8.353659,1.566,16.64634,1.566,-3.231707,0.1842353,-2.165255e-05,1.566,-0.3828125,1.566,0.4277344,1.566,-0.9350586,1.566,17.43902,1.566,-5.914634,1.566,-0.6707317
0.1850294,-7.502861e-05,1.57275,0.1152344,1.57275,0.3466797,1.57275,-1.009277,1.57275,8.292683,1.57275,16.64634,1.57275,-3.414634,0.1850294,-2.735943e-05,1.57275,-0.3754883,1.57275,0.4262695,1.57275,-0.9375,1.57275,17.2561,1.57275,-5.792683,1.57275,-0.7926829
0.1858235,-9.735256e-05,1.5795,0.1166992,1.5795,0.3476563,1.5795,-1.006348,1.5795,8.231708,1.5795,17.31707,1.5795,-3.292683,0.1858235,-2.24918e-05,1.5795,-0.3774414,1.5795,0.4228516,1.5795,-0.9350586,1.5795,17.0122,1.5795,-5.609756,1.5795,-0.7926829
0.1866176,-0.0001055772,1.58625,0.1166992,1.58625,0.3476563,1.58625,-1.007813,1.58625,8.231708,1.58625,18.41463,1.58625,-3.719512,0.1866176,-2.047761e-05,1.58625,-0.3759766,1.58625,0.4238281,1.58625,-0.9321289,1.58625,16.95122,1.58625,-5.060976,1.58625,-0.9146342
0.1874118,-0.0001038987,1.593,0.1142578,1.593,0.3457031,1.593,-1.010254,1.593,8.47561,1.593,19.26829,1.593,-3.780488,0.1874118,-2.14847e-05,1.593,-0.3823242,1.593,0.425293,1.593,-0.9345703,1.593,17.07317,1.593,-4.634146,1.593,-0.9756098
0.1882059,-0.0001394827,1.59975,0.109375,1.59975,0.3461914,1.59975,-1.008301,1.59975,8.414635,1.59975,19.39024,1.59975,-3.780488,0.1882059,-2.165255e-05,1.59975,-0.3842773,1.59975,0.4204102,1.59975,-0.9316406,1.59975,17.19512,1.59975,-3.780488,1.59975,-0.8536586
0.189,-0.000279469,1.6065,0.1083984,1.6065,0.3466797,1.6065,-1.008301,1.6065,8.597561,1.6065,18.84146,1.6065,-3.47561,0.189,-1.930266e-05,1.6065,-0.3818359,1.6065,0.4228516,1.6065,-0.9345703,1.6065,17.13415,1.6065,-3.231707,1.6065,-0.6707317
0.1897941,-0.0003105211,1.61325,0.1083984,1.61325,0.3491211,1.61325,-1.007324,1.61325,8.292683,1.61325,18.71951,1.61325,-2.987805,0.1897941,-1.829557e-05,1.61325,-0.3828125,1.61325,0.4204102,1.61325,-0.9365234,1.61325,17.07317,1.61325,-3.414634,1.61325,-0.3658537
0.1905882,-0.0002512703,1.62,0.1132813,1.62,0.3500977,1.62,-1.003906,1.62,8.170732,1.62,18.59756,1.62,-3.04878,0.1905882,-2.232395e-05,1.62,-0.3842773,1.62,0.4213867,1.62,-0.9355469,1.62,16.95122,1.62,-4.085366,1.62,-0.06097561
0.1913823,-0.000191516,1.62675,0.1132813,1.62675,0.3510742,1.62675,-1.003418,1.62675,7.926829,1.62675,18.59756,1.62675,-2.926829,0.1913823,-2.551309e-05,1.62675,-0.3837891,1.62675,0.4233398,1.62675,-0.9335938,1.62675,17.07317,1.62675,-4.512195,1.62675,0.1219512
0.1921765,-0.0001082628,1.6335,0.1113281,1.6335,0.3525391,1.6335,-1.002441,1.6335,7.743903,1.6335,18.65854,1.6335,-2.865854,0.1921765,-2.652018e-05,1.6335,-0.3798828,1.6335,0.4248047,1.6335,-0.9321289,1.6335,17.13415,1.6335,-4.512195,1.6335,0.2439024
0.1929706,-1.426719e-05,1.64025,0.1162109,1.64025,0.3549805,1.64025,-1.000977,1.64025,7.682927,1.64025,18.65854,1.64025,-2.743902,0.1929706,-2.601663e-05,1.64025,-0.3745117,1.64025,0.4301758,1.64025,-0.925293,1.64025,17.13415,1.64025,-3.902439,1.64025,0.5487805
0.1937647,3.575189e-05,1.647,0.1166992,1.647,0.3579102,1.647,-0.9990234,1.647,7.378049,1.647,18.78049,1.647,-2.682927,0.1937647,-2.702373e-05,1.647,-0.371582,1.647,0.4321289,1.647,-0.921875,1.647,16.82927,1.647,-3.658537,1.647,0.4878049
0.1945588,4.951553e-05,1.65375,0.1191406,1.65375,0.3579102,1.65375,-0.996582,1.65375,7.317073,1.65375,19.5122,1.65375,-2.560976,0.1945588,-2.299535e-05,1.65375,-0.3740234,1.65375,0.4326172,1.65375,-0.9228516,1.65375,16.76829,1.65375,-3.536585,1.65375,0.6707317
0.1953529,6.965744e-05,1.6605,0.1171875,1.6605,0.3598633,1.6605,-0.996582,1.6605,7.5,1.6605,21.15854,1.6605,-2.987805,0.1953529,-2.232395e-05,1.6605,-0.3725586,1.6605,0.434082,1.6605,-0.9179688,1.6605,16.64634,1.6605,-3.47561,1.6605,0.4268293
0.1961471,0.0001075914,1.66725,0.112793,1.66725,0.3588867,1.66725,-0.9956055,1.66725,7.804878,1.66725,22.37805,1.66725,-3.109756,0.1961471,-2.702373e-05,1.66725,-0.3769531,1.66725,0.4345703,1.66725,-0.9160156,1.66725,16.58537,1.66725,-3.109756,1.66725,0.0
0.1969412,0.0002328069,1.674,0.105957,1.674,0.3583984,1.674,-0.9960938,1.674,8.170732,1.674,22.92683,1.674,-3.170732,0.1969412,-2.635233e-05,1.674,-0.3828125,1.674,0.4311523,1.674,-0.9194336,1.674,16.70732,1.674,-2.134146,1.674,-0.06097561
0.1977353,0.0003308309,1.68075,0.09912109,1.68075,0.359375,1.68075,-0.9995117,1.68075,8.47561,1.68075,23.17073,1.68075,-3.414634,0.1977353,-2.265965e-05,1.68075,-0.390625,1.68075,0.4355469,1.68075,-0.9199219,1.68075,17.0122,1.68075,-1.646341,1.68075,-0.1219512
0.1985294,0.0002880293,1.6875,0.09179688,1.6875,0.3618164,1.6875,-1.000488,1.6875,8.536586,1.6875,23.35366,1.6875,-3.292683,0.1985294,-2.500954e-05,1.6875,-0.3984375,1.6875,0.4335938,1.6875,-0.9174805,1.6875,17.19512,1.6875,-1.280488,1.6875,-0.1829268
0.1993235,0.000220386,1.69425,0.08349609,1.69425,0.3613281,1.69425,-1.0,1.69425,8.658537,1.69425,22.7439,1.69425,-3.04878,0.1993235,-2.635233e-05,1.69425,-0.4033203,1.69425,0.4306641,1.69425,-0.921875,1.69425,17.43902,1.69425,-1.585366,1.69425,0.1829268
0.2001176,0.0001260548,1.701,0.08203125,1.701,0.3618164,1.701,-1.000488,1.701,8.780488,1.701,21.58537,1.701,-2.743902,0.2001176,-2.517739e-05,1.701,-0.4038086,1.701,0.4345703,1.701,-0.9199219,1.701,17.7439,1.701,-2.073171,1.701,0.0
0.2009118,5.874723e-06,1.70775,0.08447266,1.70775,0.3632813,1.70775,-0.9990234,1.70775,8.658537,1.70775,20.2439,1.70775,-2.804878,0.2009118,-2.987716e-05,1.70775,-0.4077148,1.70775,0.4355469,1.70775,-0.9199219,1.70775,17.68293,1.70775,-2.865854,1.70775,0.0
0.2017059,-7.267872e-05,1.7145,0.08447266,1.7145,0.3632813,1.7145,-0.9995117,1.7145,8.597561,1.7145,19.69512,1.7145,-2.926829,0.2017059,-4.246586e-05,1.7145,-0.4052734,1.7145,0.4355469,1.7145,-0.918457,1.7145,17.5,1.7145,-3.902439,1.7145,-0.3048781
0.2025,-9.91989e-05,1.72125,0.08398438,1.72125,0.3632813,1.72125,-0.9956055,1.72125,8.597561,1.72125,18.59756,1.72125,-3.04878,0.2025,-4.246586e-05,1.72125,-0.402832,1.72125,0.4350586,1.72125,-0.9111328,1.72125,17.5,1.72125,-4.939024,1.72125,-0.3048781
0.2032941,-8.82887e-05,1.728,0.08398438,1.728,0.3662109,1.728,-0.9951172,1.728,8.47561,1.728,18.17073,1.728,-2.926829,0.2032941,-3.608759e-05,1.728,-0.4047852,1.728,0.4335938,1.728,-0.9086914,1.728,17.62195,1.728,-5.670732,1.728,-0.4878049
0.2040882,-8.476387e-05,1.73475,0.08789063,1.73475,0.3642578,1.73475,-0.9990234,1.73475,8.719512,1.73475,18.65854,1.73475,-3.109756,0.2040882,-2.937362e-05,1.73475,-0.4008789,1.73475,0.4370117,1.73475,-0.9082031,1.73475,17.68293,1.73475,-5.853659,1.73475,-0.5487805
0.2048824,-0.0001601282,1.7415,0.08984375,1.7415,0.3642578,1.7415,-0.9995117,1.7415,8.658537,1.7415,19.08537,1.7415,-3.170732,0.2048824,-1.896696e-05,1.7415,-0.3974609,1.7415,0.4365234,1.7415,-0.9145508,1.7415,17.56098,1.7415,-5.426829,1.7415,-0.8536586
0.2056765,-0.0003063249,1.74825,0.09228516,1.74825,0.3579102,1.74825,-0.996582,1.74825,8.658537,1.74825,18.23171,1.74825,-3.292683,0.2056765,-8.89601e-06,1.74825,-0.3974609,1.74825,0.4345703,1.74825,-0.9213867,1.74825,17.56098,1.74825,-4.878049,1.74825,-0.7926829
0.2064706,-0.00034963,1.755,0.09716797,1.755,0.355957,1.755,-0.9941406,1.755,8.658537,1.755,16.46342,1.755,-3.658537,0.2064706,-1.292439e-05,1.755,-0.3945313,1.755,0.4291992,1.755,-0.9194336,1.755,17.43902,1.755,-5.0,1.755,-1.219512
0.2072647,-0.0003036393,1.76175,0.09912109,1.76175,0.3505859,1.76175,-0.9912109,1.76175,8.719512,1.76175,15.36585,1.76175,-4.02439,0.2072647,-1.426719e-05,1.76175,-0.3857422,1.76175,0.4208984,1.76175,-0.9204102,1.76175,17.31707,1.76175,-5.731708,1.76175,-1.463415
0.2080588,-0.0002277714,1.7685,0.1035156,1.7685,0.3432617,1.7685,-0.987793,1.7685,8.780488,1.7685,15.79268,1.7685,-4.146341,0.2080588,-1.12459e-05,1.7685,-0.3842773,1.7685,0.4160156,1.7685,-0.9160156,1.7685,17.19512,1.7685,-7.317073,1.7685,-1.768293
0.2088529,-0.0001203479,1.77525,0.1030273,1.77525,0.3417969,1.77525,-0.9858398,1.77525,9.085366,1.77525,16.46342,1.77525,-4.146341,0.2088529,-1.174945e-05,1.77525,-0.3793945,1.77525,0.4121094,1.77525,-0.9140625,1.77525,17.5,1.77525,-8.04878,1.77525,-2.012195
0.2096471,-6.999313e-05,1.782,0.1025391,1.782,0.3447266,1.782,-0.9873047,1.782,9.207317,1.782,16.64634,1.782,-3.841464,0.2096471,-2.517739e-05,1.782,-0.3798828,1.782,0.4121094,1.782,-0.9101563,1.782,17.7439,1.782,-7.804878,1.782,-1.829268
0.2104412,-2.702373e-05,1.78875,0.1044922,1.78875,0.3427734,1.78875,-0.9897461,1.78875,8.902439,1.78875,17.13415,1.78875,-3.170732,0.2104412,-2.937362e-05,1.78875,-0.3779297,1.78875,0.409668,1.78875,-0.9086914,1.78875,17.86585,1.78875,-6.646342,1.78875,-1.097561
0.2112353,1.846342e-05,1.7955,0.1083984,1.7955,0.3413086,1.7955,-0.9863281,1.7955,9.085366,1.7955,17.68293,1.7955,-2.621951,0.2112353,-2.568093e-05,1.7955,-0.3745117,1.7955,0.4121094,1.7955,-0.9111328,1.7955,18.23171,1.7955,-5.97561,1.7955,-0.4878049
0.2120294,5.958648e-05,1.80225,0.1108398,1.80225,0.3398438,1.80225,-0.9887695,1.80225,9.268292,1.80225,18.17073,1.80225,-2.5,0.2120294,-2.165255e-05,1.80225,-0.3735352,1.80225,0.4145508,1.80225,-0.9125977,1.80225,18.47561,1.80225,-5.426829,1.80225,-0.1829268
0.2128235,9.584192e-05,1.809,0.1069336,1.809,0.3417969,1.809,-0.9916992,1.809,9.695122,1.809,18.90244,1.809,-2.378049,0.2128235,-1.527428e-05,1.809,-0.3754883,1.809,0.4165039,1.809,-0.9174805,1.809,19.08537,1.809,-4.817073,1.809,-0.4268293
0.2136176,0.0002119936,1.81575,0.1069336,1.81575,0.3457031,1.81575,-0.9921875,1.81575,10.18293,1.81575,19.08537,1.81575,-2.317073,0.2136176,-1.829557e-05,1.81575,-0.3769531,1.81575,0.4194336,1.81575,-0.9165039,1.81575,19.45122,1.81575,-3.841464,1.81575,-0.6097561
0.2144118,0.0003194171,1.8225,0.1079102,1.8225,0.3481445,1.8225,-0.9956055,1.8225,10.54878,1.8225,19.02439,1.8225,-2.317073,0.2144118,-1.947051e-05,1.8225,-0.3803711,1.8225,0.4243164,1.8225,-0.9199219,1.8225,19.57317,1.8225,-3.414634,1.8225,-0.7317073
0.2152059,0.0003105211,1.82925,0.1040039,1.82925,0.3574219,1.82925,-0.9926758,1.82925,10.42683,1.82925,18.59756,1.82925,-2.5,0.2152059,-1.460288e-05,1.82925,-0.3862305,1.82925,0.4272461,1.82925,-0.9204102,1.82925,19.57317,1.82925,-3.658537,1.82925,-0.8536586
0.216,0.0002673838,1.836,0.1044922,1.836,0.359375,1.836,-0.9956055,1.836,10.48781,1.836,18.96342,1.836,-2.560976,0.216,-1.426719e-05,1.836,-0.3886719,1.836,0.4350586,1.836,-0.9204102,1.836,19.39024,1.836,-4.268293,1.836,-0.8536586
0.2167941,0.0002077974,1.84275,0.1025391,1.84275,0.3608398,1.84275,-0.9951172,1.84275,10.54878,1.84275,19.14634,1.84275,-2.926829,0.2167941,-1.359579e-05,1.84275,-0.3891602,1.84275,0.4379883,1.84275,-0.9233398,1.84275,19.32927,1.84275,-4.817073,1.84275,-1.219512
0.2175882,0.0001028916,1.8495,0.1035156,1.8495,0.3574219,1.8495,-1.001465,1.8495,10.36585,1.8495,18.96342,1.8495,-3.414634,0.2175882,-1.292439e-05,1.8495,-0.3876953,1.8495,0.434082,1.8495,-0.9223633,1.8495,18.96342,1.8495,-5.060976,1.8495,-1.829268
0.2183823,-1.12459e-05,1.85625,0.1030273,1.85625,0.3564453,1.85625,-1.003906,1.85625,10.18293,1.85625,18.84146,1.85625,-3.780488,0.2183823,-1.795987e-05,1.85625,-0.3935547,1.85625,0.4311523,1.85625,-0.9228516,1.85625,18.65854,1.85625,-5.243903,1.85625,-2.012195
0.2191765,-6.478981e-05,1.863,0.09472656,1.863,0.3520508,1.863,-1.004883,1.863,9.878049,1.863,18.59756,1.863,-3.719512,0.2191765,-1.930266e-05,1.863,-0.3945313,1.863,0.4243164,1.863,-0.9282227,1.863,18.35366,1.863,-5.54878,1.863,-1.890244
0.2199706,-9.248493e-05,1.86975,0.09716797,1.86975,0.3496094,1.86975,-1.008789,1.86975,9.573171,1.86975,18.04878,1.86975,-3.414634,0.2199706,-2.534523e-05,1.86975,-0.3979492,1.86975,0.4160156,1.86975,-0.9287109,1.86975,18.29268,1.86975,-5.426829,1.86975,-1.52439
0.2207647,-9.315633e-05,1.8765,0.1000977,1.8765,0.3457031,1.8765,-1.008789,1.8765,9.146341,1.8765,17.56098,1.8765,-2.682927,0.2207647,-2.870222e-05,1.8765,-0.3959961,1.8765,0.4116211,1.8765,-0.9301758,1.8765,18.41463,1.8765,-5.731708,1.8765,-0.7317073
0.2215588,-0.0001445182,1.88325,0.1000977,1.88325,0.3442383,1.88325,-1.006348,1.88325,8.963415,1.88325,17.13415,1.88325,-1.890244,0.2215588,-2.836652e-05,1.88325,-0.3901367,1.88325,0.4140625,1.88325,-0.934082,1.88325,18.41463,1.88325,-5.914634,1.88325,-0.06097561
0.2223529,-0.0002944076,1.89,0.1054688,1.89,0.3452148,1.89,-1.010254,1.89,9.02439,1.89,17.0122,1.89,-1.707317,0.2223529,-2.433814e-05,1.89,-0.3857422,1.89,0.4204102,1.89,-0.9321289,1.89,18.65854,1.89,-5.731708,1.89,0.3048781
0.223147,-0.0003482872,1.89675,0.112793,1.89675,0.347168,1.89675,-1.008301,1.89675,9.085366,1.89675,16.95122,1.89675,-1.585366,0.223147,-2.299535e-05,1.89675,-0.3789063,1.89675,0.4248047,1.89675,-0.9326172,1.89675,18.96342,1.89675,-5.731708,1.89675,0.4268293
0.2239412,-0.0003143816,1.9035,0.1142578,1.9035,0.3515625,1.9035,-1.009766,1.9035,9.085366,1.9035,17.31707,1.9035,-1.707317,0.2239412,-2.333104e-05,1.9035,-0.3818359,1.9035,0.4262695,1.9035,-0.9345703,1.9035,18.90244,1.9035,-5.853659,1.9035,0.3658537
0.2247353,-0.0002475776,1.91025,0.1162109,1.91025,0.3520508,1.91025,-1.008301,1.91025,8.841464,1.91025,17.68293,1.91025,-1.890244,0.2247353,-2.635233e-05,1.91025,-0.378418,1.91025,0.4272461,1.91025,-0.9355469,1.91025,18.47561,1.91025,-5.609756,1.91025,0.3048781
0.2255294,-0.0001515679,1.917,0.1181641,1.917,0.3535156,1.917,-1.007813,1.917,8.597561,1.917,17.68293,1.917,-1.890244,0.2255294,-3.642328e-05,1.917,-0.3779297,1.917,0.4311523,1.917,-0.9360352,1.917,18.23171,1.917,-5.670732,1.917,0.2439024
0.2263235,-5.287251e-05,1.92375,0.1152344,1.92375,0.3500977,1.92375,-1.006348,1.92375,8.47561,1.92375,17.7439,1.92375,-2.317073,0.2263235,-4.39765e-05,1.92375,-0.3769531,1.92375,0.4287109,1.92375,-0.9321289,1.92375,17.86585,1.92375,-5.54878,1.92375,0.06097561
0.2271176,1.19173e-05,1.9305,0.1166992,1.9305,0.3535156,1.9305,-1.002441,1.9305,8.353659,1.9305,17.43902,1.9305,-2.682927,0.2271176,-4.095522e-05,1.9305,-0.3769531,1.9305,0.4296875,1.9305,-0.9301758,1.9305,17.7439,1.9305,-5.914634,1.9305,-0.1829268
0.2279118,5.253681e-05,1.93725,0.1113281,1.93725,0.3510742,1.93725,-0.9980469,1.93725,8.231708,1.93725,17.07317,1.93725,-3.109756,0.2279118,-3.038071e-05,1.93725,-0.378418,1.93725,0.4277344,1.93725,-0.9311523,1.93725,17.43902,1.93725,-6.219512,1.93725,-0.4878049
0.2287059,6.999313e-05,1.944,0.1118164,1.944,0.3525391,1.944,-0.9985352,1.944,8.292683,1.944,17.2561,1.944,-3.231707,0.2287059,-2.500954e-05,1.944,-0.3779297,1.944,0.4243164,1.944,-0.9262695,1.944,17.2561,1.944,-6.707317,1.944,-0.4878049
0.2295,9.382772e-05,1.95075,0.1147461,1.95075,0.3496094,1.95075,-0.9985352,1.95075,8.04878,1.95075,17.7439,1.95075,-3.170732,0.2295,-1.225299e-05,1.95075,-0.3745117,1.95075,0.4204102,1.95075,-0.9233398,1.95075,17.19512,1.95075,-6.707317,1.95075,-0.3048781
0.2302941,0.0002200504,1.9575,0.1142578,1.9575,0.3461914,1.9575,-1.001465,1.9575,7.926829,1.9575,18.84146,1.9575,-3.170732,0.2302941,-5.706874e-06,1.9575,-0.375,1.9575,0.418457,1.9575,-0.9233398,1.9575,16.82927,1.9575,-5.731708,1.9575,-0.1219512
0.2310882,0.0003179065,1.96425,0.1171875,1.96425,0.3466797,1.96425,-1.001953,1.96425,7.987805,1.96425,19.93902,1.96425,-3.04878,0.2310882,-8.89601e-06,1.96425,-0.3710938,1.96425,0.421875,1.96425,-0.9208984,1.96425,16.89024,1.96425,-4.45122,1.96425,0.0
0.2318823,0.0003033036,1.971,0.1196289,1.971,0.3427734,1.971,-0.996582,1.971,7.865854,1.971,20.36585,1.971,-3.109756,0.2318823,-1.107805e-05,1.971,-0.3735352,1.971,0.4194336,1.971,-0.9233398,1.971,16.82927,1.971,-2.804878,1.971,0.1219512
0.2326765,0.0002776226,1.97775,0.1171875,1.97775,0.3417969,1.97775,-0.9975586,1.97775,8.04878,1.97775,20.60976,1.97775,-3.292683,0.2326765,-9.735256e-06,1.97775,-0.3725586,1.97775,0.4204102,1.97775,-0.9213867,1.97775,16.82927,1.97775,-1.829268,1.97775,-0.06097561
0.2334706,0.0001844663,1.9845,0.1162109,1.9845,0.3427734,1.9845,-0.9946289,1.9845,8.231708,1.9845,21.15854,1.9845,-3.292683,0.2334706,-1.393149e-05,1.9845,-0.3740234,1.9845,0.4194336,1.9845,-0.9243164,1.9845,16.95122,1.9845,-1.585366,1.9845,-0.06097561
0.2342647,4.515145e-05,1.99125,0.1098633,1.99125,0.3413086,1.99125,-0.9970703,1.99125,8.353659,1.99125,21.58537,1.99125,-3.414634,0.2342647,-1.963836e-05,1.99125,-0.3779297,1.99125,0.4189453,1.99125,-0.9257813,1.99125,17.2561,1.99125,-1.829268,1.99125,-0.3048781
0.2350588,-4.783703e-05,1.998,0.109375,1.998,0.3447266,1.998,-0.9990234,1.998,8.597561,1.998,22.19512,1.998,-3.536585,0.2350588,-1.913481e-05,1.998,-0.3837891,1.998,0.4213867,1.998,-0.9248047,1.998,17.43902,1.998,-1.768293,1.998,-0.4268293
0.2358529,-7.77142e-05,,,,,,,,,,,,,0.2358529,-2.165255e-05,,,,,,,,,,,,
0.2366471,-8.879225e-05,,,,,,,,,,,,,0.2366471,-2.299535e-05,,,,,,,,,,,,
0.2374412,-0.0001203479,,,,,,,,,,,,,0.2374412,-2.568093e-05,,,,,,,,,,,,
0.2382353,-0.0002057832,,,,,,,,,,,,,0.2382353,-3.37377e-05,,,,,,,,,,,,
0.2390294,-0.0003680934,,,,,,,,,,,,,0.2390294,-3.40734e-05,,,,,,,,,,,,
0.2398235,-0.0004048524,,,,,,,,,,,,,0.2398235,-2.165255e-05,,,,,,,,,,,,
0.2406176,-0.0003335165,,,,,,,,,,,,,0.2406176,-1.829557e-05,,,,,,,,,,,,
0.2414118,-0.0002472419,,,,,,,,,,,,,0.2414118,-2.232395e-05,,,,,,,,,,,,
0.2422059,-0.0001317617,,,,,,,,,,,,,0.2422059,-2.198825e-05,,,,,,,,,,,,
0.243,-1.460288e-05,,,,,,,,,,,,,0.243,-2.433814e-05,,,,,,,,,,,,
0.2437941,6.630045e-05,,,,,,,,,,,,,0.2437941,-2.366674e-05,,,,,,,,,,,,
0.2445882,0.0001122911,,,,,,,,,,,,,0.2445882,-2.316319e-05,,,,,,,,,,,,
0.2453824,0.0001592889,,,,,,,,,,,,,0.2453824,-2.098116e-05,,,,,,,,,,,,
0.2461765,0.0001574426,,,,,,,,,,,,,0.2461765,-2.517739e-05,,,,,,,,,,,,
0.2469706,0.0002448921,,,,,,,,,,,,,0.2469706,-2.652018e-05,,,,,,,,,,,,
0.2477647,0.0003286488,,,,,,,,,,,,,0.2477647,-2.467384e-05,,,,,,,,,,,,
0.2485588,0.0002979324,,,,,,,,,,,,,0.2485588,-2.366674e-05,,,,,,,,,,,,
0.2493529,0.0002177005,,,,,,,,,,,,,0.2493529,-1.846342e-05,,,,,,,,,,,,
0.250147,8.526741e-05,,,,,,,,,,,,,0.250147,-1.846342e-05,,,,,,,,,,,,
0.2509412,-3.038071e-05,,,,,,,,,,,,,0.2509412,-2.198825e-05,,,,,,,,,,,,
0.2517353,-6.898604e-05,,,,,,,,,,,,,0.2517353,-2.500954e-05,,,,,,,,,,,,
0.2525294,-8.023193e-05,,,,,,,,,,,,,0.2525294,-2.836652e-05,,,,,,,,,,,,
0.2533235,-0.0001012131,,,,,,,,,,,,,0.2533235,-2.769513e-05,,,,,,,,,,,,
0.2541176,-0.0001347829,,,,,,,,,,,,,0.2541176,-2.400244e-05,,,,,,,,,,,,
0.2549118,-0.0001817807,,,,,,,,,,,,,0.2549118,-2.18204e-05,,,,,,,,,,,,
0.2557059,-0.0002969253,,,,,,,,,,,,,0.2557059,-2.500954e-05,,,,,,,,,,,,
0.2565,-0.00028954,,,,,,,,,,,,,0.2565,-2.400244e-05,,,,,,,,,,,,
0.2572941,-0.0002378424,,,,,,,,,,,,,0.2572941,-2.400244e-05,,,,,,,,,,,,
0.2580882,-0.0001962158,,,,,,,,,,,,,0.2580882,-2.668803e-05,,,,,,,,,,,,
0.2588823,-8.946365e-05,,,,,,,,,,,,,0.2588823,-3.189136e-05,,,,,,,,,,,,
0.2596765,-1.02388e-05,,,,,,,,,,,,,0.2596765,-3.642328e-05,,,,,,,,,,,,
0.2604706,4.884413e-05,,,,,,,,,,,,,0.2604706,-3.541619e-05,,,,,,,,,,,,
0.2612647,0.0001085985,,,,,,,,,,,,,0.2612647,-3.20592e-05,,,,,,,,,,,,
0.2620588,0.000131426,,,,,,,,,,,,,0.2620588,-2.970932e-05,,,,,,,,,,,,
0.2628529,0.000152575,,,,,,,,,,,,,0.2628529,-2.517739e-05,,,,,,,,,,,,
0.263647,0.0002532845,,,,,,,,,,,,,0.263647,-2.668803e-05,,,,,,,,,,,,
0.2644412,0.0003294881,,,,,,,,,,,,,0.2644412,-2.098116e-05,,,,,,,,,,,,
0.2652353,0.0002952468,,,,,,,,,,,,,0.2652353,-1.19173e-05,,,,,,,,,,,,
0.2660294,0.0002119936,,,,,,,,,,,,,0.2660294,-8.89601e-06,,,,,,,,,,,,
0.2668235,8.039978e-05,,,,,,,,,,,,,0.2668235,-1.15816e-05,,,,,,,,,,,,
0.2676176,-7.77142e-05,,,,,,,,,,,,,0.2676176,-1.728847e-05,,,,,,,,,,,,
0.2684118,-0.0001495537,,,,,,,,,,,,,0.2684118,-1.779202e-05,,,,,,,,,,,,
0.2692059,-0.0001656672,,,,,,,,,,,,,0.2692059,-1.628138e-05,,,,,,,,,,,,
0.27,-0.0001858091,,,,,,,,,,,,,0.27,-1.560998e-05,,,,,,,,,,,,
0.2707941,-0.0002165255,,,,,,,,,,,,,0.2707941,-1.661708e-05,,,,,,,,,,,,
0.2715882,-0.0002823224,,,,,,,,,,,,,0.2715882,-1.963836e-05,,,,,,,,,,,,
0.2723823,-0.0004211337,,,,,,,,,,,,,0.2723823,-2.030976e-05,,,,,,,,,,,,
0.2731765,-0.0004080415,,,,,,,,,,,,,0.2731765,-1.762417e-05,,,,,,,,,,,,
0.2739706,-0.0002774548,,,,,,,,,,,,,0.2739706,-7.553216e-06,,,,,,,,,,,,
0.2747647,-0.0001284047,,,,,,,,,,,,,0.2747647,-2.853437e-06,,,,,,,,,,,,
0.2755588,1.05745e-05,,,,,,,,,,,,,0.2755588,-1.426719e-05,,,,,,,,,,,,
0.2763529,9.248493e-05,,,,,,,,,,,,,0.2763529,-2.232395e-05,,,,,,,,,,,,
0.2771471,0.0001149767,,,,,,,,,,,,,0.2771471,-2.735943e-05,,,,,,,,,,,,
0.2779412,0.000156939,,,,,,,,,,,,,0.2779412,-2.568093e-05,,,,,,,,,,,,
0.2787353,0.0002319677,,,,,,,,,,,,,0.2787353,-2.400244e-05,,,,,,,,,,,,
0.2795294,0.0002714122,,,,,,,,,,,,,0.2795294,-2.652018e-05,,,,,,,,,,,,
0.2803235,0.0003427482,,,,,,,,,,,,,0.2803235,-2.702373e-05,,,,,,,,,,,,
0.2811176,0.0003889067,,,,,,,,,,,,,0.2811176,-3.37377e-05,,,,,,,,,,,,
0.2819118,0.0003694362,,,,,,,,,,,,,0.2819118,-4.213016e-05,,,,,,,,,,,,
0.2827059,0.0002907149,,,,,,,,,,,,,0.2827059,-5.857939e-05,,,,,,,,,,,,
0.2835,0.0001307546,,,,,,,,,,,,,0.2835,-6.596475e-05,,,,,,,,,,,,
0.2842941,-9.903105e-06,,,,,,,,,,,,,0.2842941,-5.656519e-05,,,,,,,,,,,,
0.2850882,-8.946365e-05,,,,,,,,,,,,,0.2850882,-3.659113e-05,,,,,,,,,,,,
0.2858824,-0.0001421683,,,,,,,,,,,,,0.2858824,-1.997406e-05,,,,,,,,,,,,
0.2866765,-0.0001755703,,,,,,,,,,,,,0.2866765,-8.392462e-07,,,,,,,,,,,,
0.2874706,-0.000184802,,,,,,,,,,,,,0.2874706,1.02388e-05,,,,,,,,,,,,
0.2882647,-0.0002183719,,,,,,,,,,,,,0.2882647,1.02388e-05,,,,,,,,,,,,
0.2890588,-0.0003291524,,,,,,,,,,,,,0.2890588,9.231709e-06,,,,,,,,,,,,
0.2898529,-0.0003620508,,,,,,,,,,,,,0.2898529,7.385367e-06,,,,,,,,,,,,
0.2906471,-0.0002680552,,,,,,,,,,,,,0.2906471,5.035477e-07,,,,,,,,,,,,
0.2914412,-0.0001784237,,,,,,,,,,,,,0.2914412,-6.54612e-06,,,,,,,,,,,,
0.2922353,-0.0001008774,,,,,,,,,,,,,0.2922353,-2.098116e-05,,,,,,,,,,,,
0.2930294,-1.15816e-05,,,,,,,,,,,,,0.2930294,-3.440909e-05,,,,,,,,,,,,
0.2938235,6.059357e-05,,,,,,,,,,,,,0.2938235,-3.944457e-05,,,,,,,,,,,,
0.2946177,8.711375e-05,,,,,,,,,,,,,0.2946177,-4.145876e-05,,,,,,,,,,,,
0.2954118,0.0001015488,,,,,,,,,,,,,0.2954118,-4.011597e-05,,,,,,,,,,,,
0.2962059,0.0001156481,,,,,,,,,,,,,0.2962059,-3.23949e-05,,,,,,,,,,,,
0.297,0.0002146792,,,,,,,,,,,,,0.297,-2.433814e-05,,,,,,,,,,,,
0.2977941,0.0002855115,,,,,,,,,,,,,0.2977941,-2.198825e-05,,,,,,,,,,,,
0.2985882,0.0002603342,,,,,,,,,,,,,0.2985882,-2.064546e-05,,,,,,,,,,,,
0.2993824,0.0002099794,,,,,,,,,,,,,0.2993824,-2.064546e-05,,,,,,,,,,,,
0.3001765,0.0001049058,,,,,,,,,,,,,0.3001765,-2.333104e-05,,,,,,,,,,,,
0.3009706,-1.560998e-05,,,,,,,,,,,,,0.3009706,-2.333104e-05,,,,,,,,,,,,
0.3017647,-7.200732e-05,,,,,,,,,,,,,0.3017647,-2.232395e-05,,,,,,,,,,,,
0.3025588,-9.718471e-05,,,,,,,,,,,,,0.3025588,-2.232395e-05,,,,,,,,,,,,
0.3033529,-0.0001287404,,,,,,,,,,,,,0.3033529,-2.030976e-05,,,,,,,,,,,,
0.3041471,-0.0001327687,,,,,,,,,,,,,0.3041471,-1.829557e-05,,,,,,,,,,,,
0.3049412,-0.0001844663,,,,,,,,,,,,,0.3049412,-1.963836e-05,,,,,,,,,,,,
0.3057353,-0.0003160601,,,,,,,,,,,,,0.3057353,-2.064546e-05,,,,,,,,,,,,
0.3065294,-0.0003687648,,,,,,,,,,,,,0.3065294,-2.349889e-05,,,,,,,,,,,,
0.3073235,-0.0003630579,,,,,,,,,,,,,0.3073235,-3.004501e-05,,,,,,,,,,,,
0.3081176,-0.0003063249,,,,,,,,,,,,,0.3081176,-3.172351e-05,,,,,,,,,,,,
0.3089118,-0.0001752346,,,,,,,,,,,,,0.3089118,-2.467384e-05,,,,,,,,,,,,
0.3097059,-5.152972e-05,,,,,,,,,,,,,0.3097059,-1.628138e-05,,,,,,,,,,,,
0.3105,1.19173e-05,,,,,,,,,,,,,0.3105,-1.359579e-05,,,,,,,,,,,,
0.3112941,4.951553e-05,,,,,,,,,,,,,0.3112941,-1.728847e-05,,,,,,,,,,,,
0.3120882,7.267872e-05,,,,,,,,,,,,,0.3120882,-1.896696e-05,,,,,,,,,,,,
0.3128823,9.819181e-05,,,,,,,,,,,,,0.3128823,-1.812772e-05,,,,,,,,,,,,
0.3136765,0.0002321355,,,,,,,,,,,,,0.3136765,-1.846342e-05,,,,,,,,,,,,
0.3144706,0.0003744717,,,,,,,,,,,,,0.3144706,-1.628138e-05,,,,,,,,,,,,
0.3152647,0.0003649043,,,,,,,,,,,,,0.3152647,-1.896696e-05,,,,,,,,,,,,
0.3160588,0.0002757763,,,,,,,,,,,,,0.3160588,-2.366674e-05,,,,,,,,,,,,
0.3168529,0.0001673457,,,,,,,,,,,,,0.3168529,-2.836652e-05,,,,,,,,,,,,
0.317647,5.55581e-05,,,,,,,,,,,,,0.317647,-3.3402e-05,,,,,,,,,,,,
0.3184412,-2.232395e-05,,,,,,,,,,,,,0.3184412,-3.27306e-05,,,,,,,,,,,,
0.3192353,-6.797894e-05,,,,,,,,,,,,,0.3192353,-2.870222e-05,,,,,,,,,,,,
0.3200294,-0.0001008774,,,,,,,,,,,,,0.3200294,-2.349889e-05,,,,,,,,,,,,
0.3208235,-0.0001232013,,,,,,,,,,,,,0.3208235,-2.366674e-05,,,,,,,,,,,,
0.3216176,-0.0001743954,,,,,,,,,,,,,0.3216176,-2.165255e-05,,,,,,,,,,,,
0.3224117,-0.0002784619,,,,,,,,,,,,,0.3224117,-2.1149e-05,,,,,,,,,,,,
0.3232059,-0.000315053,,,,,,,,,,,,,0.3232059,-2.333104e-05,,,,,,,,,,,,
0.324,-0.0003019608,,,,,,,,,,,,,0.324,-2.635233e-05,,,,,,,,,,,,
0.3247941,-0.0002606699,,,,,,,,,,,,,0.3247941,-3.138781e-05,,,,,,,,,,,,
0.3255882,-0.0001371328,,,,,,,,,,,,,0.3255882,-3.071641e-05,,,,,,,,,,,,
0.3263823,-2.433814e-05,,,,,,,,,,,,,0.3263823,-2.568093e-05,,,,,,,,,,,,
0.3271765,2.735943e-05,,,,,,,,,,,,,0.3271765,-2.668803e-05,,,,,,,,,,,,
0.3279706,6.076142e-05,,,,,,,,,,,,,0.3279706,-2.500954e-05,,,,,,,,,,,,
0.3287647,0.0001079271,,,,,,,,,,,,,0.3287647,-2.450599e-05,,,,,,,,,,,,
0.3295588,0.0001596246,,,,,,,,,,,,,0.3295588,-2.601663e-05,,,,,,,,,,,,
0.3303529,0.000276112,,,,,,,,,,,,,0.3303529,-2.383459e-05,,,,,,,,,,,,
0.331147,0.0003821927,,,,,,,,,,,,,0.331147,-1.762417e-05,,,,,,,,,,,,
0.3319412,0.0003543297,,,,,,,,,,,,,0.3319412,-2.265965e-05,,,,,,,,,,,,
0.3327353,0.0002317998,,,,,,,,,,,,,0.3327353,-2.668803e-05,,,,,,,,,,,,
0.3335294,9.88632e-05,,,,,,,,,,,,,0.3335294,-2.970932e-05,,,,,,,,,,,,
0.3343235,5.706874e-06,,,,,,,,,,,,,0.3343235,-2.769513e-05,,,,,,,,,,,,
0.3351176,-4.515145e-05,,,,,,,,,,,,,0.3351176,-2.433814e-05,,,,,,,,,,,,
0.3359118,-8.946365e-05,,,,,,,,,,,,,0.3359118,-1.05745e-05,,,,,,,,,,,,
0.3367059,-0.0001381399,,,,,,,,,,,,,0.3367059,-7.217518e-06,,,,,,,,,,,,
0.3375,-0.0001680171,,,,,,,,,,,,,0.3375,-1.09102e-05,,,,,,,,,,,,
0.3382941,-0.000205951,,,,,,,,,,,,,0.3382941,-9.567407e-06,,,,,,,,,,,,
0.3390882,-0.0002982681,,,,,,,,,,,,,0.3390882,-9.567407e-06,,,,,,,,,,,,
0.3398823,-0.0002808118,,,,,,,,,,,,,0.3398823,-1.225299e-05,,,,,,,,,,,,
0.3406765,-0.0002500954,,,,,,,,,,,,,0.3406765,-1.896696e-05,,,,,,,,,,,,
0.3414706,-0.0002022583,,,,,,,,,,,,,0.3414706,-2.467384e-05,,,,,,,,,,,,
0.3422647,-0.0001156481,,,,,,,,,,,,,0.3422647,-2.836652e-05,,,,,,,,,,,,
0.3430588,-5.606165e-05,,,,,,,,,,,,,0.3430588,-3.524834e-05,,,,,,,,,,,,
0.3438529,-3.189136e-06,,,,,,,,,,,,,0.3438529,-4.649424e-05,,,,,,,,,,,,
0.344647,6.059357e-05,,,,,,,,,,,,,0.344647,-4.615854e-05,,,,,,,,,,,,
0.3454412,9.98703e-05,,,,,,,,,,,,,0.3454412,-3.23949e-05,,,,,,,,,,,,
0.3462353,0.0001488823,,,,,,,,,,,,,0.3462353,-2.635233e-05,,,,,,,,,,,,
0.3470294,0.0002925612,,,,,,,,,,,,,0.3470294,-2.400244e-05,,,,,,,,,,,,
0.3478235,0.0003623865,,,,,,,,,,,,,0.3478235,-1.762417e-05,,,,,,,,,,,,
0.3486176,0.0003140459,,,,,,,,,,,,,0.3486176,-1.359579e-05,,,,,,,,,,,,
0.3494118,0.0002866865,,,,,,,,,,,,,0.3494118,-1.12459e-05,,,,,,,,,,,,
0.3502059,0.0001730526,,,,,,,,,,,,,0.3502059,-6.881819e-06,,,,,,,,,,,,
0.351,3.541619e-05,,,,,,,,,,,,,0.351,-1.225299e-05,,,,,,,,,,,,
0.3517941,-2.568093e-05,,,,,,,,,,,,,0.3517941,-1.863127e-05,,,,,,,,,,,,
0.3525882,-6.697185e-05,,,,,,,,,,,,,0.3525882,-2.568093e-05,,,,,,,,,,,,
0.3533823,-9.684901e-05,,,,,,,,,,,,,0.3533823,-3.038071e-05,,,,,,,,,,,,
0.3541765,-0.0001190051,,,,,,,,,,,,,0.3541765,-3.30663e-05,,,,,,,,,,,,
0.3549706,-0.0002009155,,,,,,,,,,,,,0.3549706,-3.508049e-05,,,,,,,,,,,,
0.3557647,-0.0003372091,,,,,,,,,,,,,0.3557647,-3.27306e-05,,,,,,,,,,,,
0.3565588,-0.0003466087,,,,,,,,,,,,,0.3565588,-2.735943e-05,,,,,,,,,,,,
0.3573529,-0.0003059892,,,,,,,,,,,,,0.3573529,-2.568093e-05,,,,,,,,,,,,
0.3581471,-0.0002032654,,,,,,,,,,,,,0.3581471,-2.064546e-05,,,,,,,,,,,,
0.3589412,-8.509956e-05,,,,,,,,,,,,,0.3589412,-1.443504e-05,,,,,,,,,,,,
0.3597353,-2.601663e-05,,,,,,,,,,,,,0.3597353,-1.15816e-05,,,,,,,,,,,,
0.3605294,1.594568e-05,,,,,,,,,,,,,0.3605294,-1.09102e-05,,,,,,,,,,,,
0.3613235,6.395056e-05,,,,,,,,,,,,,0.3613235,-1.460288e-05,,,,,,,,,,,,
0.3621176,9.718471e-05,,,,,,,,,,,,,0.3621176,-9.735256e-06,,,,,,,,,,,,
0.3629118,0.0001337758,,,,,,,,,,,,,0.3629118,-9.903105e-06,,,,,,,,,,,,
0.3637059,0.0002395209,,,,,,,,,,,,,0.3637059,-1.460288e-05,,,,,,,,,,,,
0.3645,0.0003204242,,,,,,,,,,,,,0.3645,-1.896696e-05,,,,,,,,,,,,
0.3652941,0.0002969253,,,,,,,,,,,,,0.3652941,-2.299535e-05,,,,,,,,,,,,
0.3660882,0.0002591592,,,,,,,,,,,,,0.3660882,-3.038071e-05,,,,,,,,,,,,
0.3668824,0.0001666743,,,,,,,,,,,,,0.3668824,-3.440909e-05,,,,,,,,,,,,
0.3676765,3.474479e-05,,,,,,,,,,,,,0.3676765,-3.23949e-05,,,,,,,,,,,,
0.3684706,-5.824369e-05,,,,,,,,,,,,,0.3684706,-3.3402e-05,,,,,,,,,,,,
0.3692647,-8.207828e-05,,,,,,,,,,,,,0.3692647,-3.40734e-05,,,,,,,,,,,,
0.3700588,-0.0001008774,,,,,,,,,,,,,0.3700588,-3.810178e-05,,,,,,,,,,,,
0.3708529,-0.0001408255,,,,,,,,,,,,,0.3708529,-4.313725e-05,,,,,,,,,,,,
0.3716471,-0.0002324712,,,,,,,,,,,,,0.3716471,-3.743038e-05,,,,,,,,,,,,
0.3724412,-0.0003754788,,,,,,,,,,,,,0.3724412,-3.105211e-05,,,,,,,,,,,,
0.3732353,-0.0004157626,,,,,,,,,,,,,0.3732353,-1.963836e-05,,,,,,,,,,,,
0.3740294,-0.0003738003,,,,,,,,,,,,,0.3740294,-6.54612e-06,,,,,,,,,,,,
0.3748235,-0.0002798047,,,,,,,,,,,,,0.3748235,-3.860533e-06,,,,,,,,,,,,
0.3756177,-0.0001609674,,,,,,,,,,,,,0.3756177,-5.874723e-06,,,,,,,,,,,,
0.3764118,-6.630045e-05,,,,,,,,,,,,,0.3764118,-1.107805e-05,,,,,,,,,,,,
0.3772059,-6.881819e-06,,,,,,,,,,,,,0.3772059,-1.527428e-05,,,,,,,,,,,,
0.378,4.951553e-05,,,,,,,,,,,,,0.378,-1.393149e-05,,,,,,,,,,,,
0.3787941,0.0001072557,,,,,,,,,,,,,0.3787941,-1.712062e-05,,,,,,,,,,,,
0.3795882,0.0001639887,,,,,,,,,,,,,0.3795882,-1.712062e-05,,,,,,,,,,,,
0.3803824,0.000251606,,,,,,,,,,,,,0.3803824,-1.863127e-05,,,,,,,,,,,,
0.3811765,0.0003449302,,,,,,,,,,,,,0.3811765,-2.081331e-05,,,,,,,,,,,,
0.3819706,0.0003655757,,,,,,,,,,,,,0.3819706,-2.165255e-05,,,,,,,,,,,,
0.3827647,0.0003127031,,,,,,,,,,,,,0.3827647,-2.232395e-05,,,,,,,,,,,,
0.3835588,0.0001790951,,,,,,,,,,,,,0.3835588,-2.299535e-05,,,,,,,,,,,,
0.3843529,2.635233e-05,,,,,,,,,,,,,0.3843529,-2.165255e-05,,,,,,,,,,,,
0.3851471,-5.186542e-05,,,,,,,,,,,,,0.3851471,-1.997406e-05,,,,,,,,,,,,
0.3859412,-9.517052e-05,,,,,,,,,,,,,0.3859412,-1.963836e-05,,,,,,,,,,,,
0.3867353,-0.0001263905,,,,,,,,,,,,,0.3867353,-2.299535e-05,,,,,,,,,,,,
0.3875294,-0.00013579,,,,,,,,,,,,,0.3875294,-2.198825e-05,,,,,,,,,,,,
0.3883235,-0.0001802701,,,,,,,,,,,,,0.3883235,-2.333104e-05,,,,,,,,,,,,
0.3891176,-0.0003106889,,,,,,,,,,,,,0.3891176,-2.769513e-05,,,,,,,,,,,,
0.3899118,-0.0003412375,,,,,,,,,,,,,0.3899118,-2.366674e-05,,,,,,,,,,,,
0.3907059,-0.0003113603,,,,,,,,,,,,,0.3907059,-1.963836e-05,,,,,,,,,,,,
0.3915,-0.0002291142,,,,,,,,,,,,,0.3915,-1.896696e-05,,,,,,,,,,,,
0.3922941,-0.0001119554,,,,,,,,,,,,,0.3922941,-2.064546e-05,,,,,,,,,,,,
0.3930882,-2.735943e-05,,,,,,,,,,,,,0.3930882,-2.333104e-05,,,,,,,,,,,,
0.3938823,1.292439e-05,,,,,,,,,,,,,0.3938823,-2.500954e-05,,,,,,,,,,,,
0.3946765,4.414435e-05,,,,,,,,,,,,,0.3946765,-2.702373e-05,,,,,,,,,,,,
0.3954706,7.167162e-05,,,,,,,,,,,,,0.3954706,-2.970932e-05,,,,,,,,,,,,
0.3962647,0.0001153124,,,,,,,,,,,,,0.3962647,-2.836652e-05,,,,,,,,,,,,
0.3970588,0.0002314641,,,,,,,,,,,,,0.3970588,-2.652018e-05,,,,,,,,,,,,
0.3978529,0.0003103532,,,,,,,,,,,,,0.3978529,-2.735943e-05,,,,,,,,,,,,
0.398647,0.000288365,,,,,,,,,,,,,0.398647,-2.584878e-05,,,,,,,,,,,,
0.3994412,0.0002479133,,,,,,,,,,,,,0.3994412,-2.568093e-05,,,,,,,,,,,,
0.4002353,0.0001408255,,,,,,,,,,,,,0.4002353,-2.702373e-05,,,,,,,,,,,,
0.4010294,1.644922e-05,,,,,,,,,,,,,0.4010294,-2.668803e-05,,,,,,,,,,,,
0.4018235,-4.448005e-05,,,,,,,,,,,,,0.4018235,-2.668803e-05,,,,,,,,,,,,
0.4026176,-7.402152e-05,,,,,,,,,,,,,0.4026176,-2.265965e-05,,,,,,,,,,,,
0.4034117,-8.879225e-05,,,,,,,,,,,,,0.4034117,-2.030976e-05,,,,,,,,,,,,
0.4042059,-0.0001025559,,,,,,,,,,,,,0.4042059,-2.333104e-05,,,,,,,,,,,,
0.405,-0.0001681849,,,,,,,,,,,,,0.405,-2.366674e-05,,,,,,,,,,,,
0.4057941,-0.0003001145,,,,,,,,,,,,,0.4057941,-2.165255e-05,,,,,,,,,,,,
0.4065882,-0.0003187457,,,,,,,,,,,,,0.4065882,-1.980621e-05,,,,,,,,,,,,
0.4073823,-0.0002730907,,,,,,,,,,,,,0.4073823,-2.098116e-05,,,,,,,,,,,,
0.4081765,-0.0002022583,,,,,,,,,,,,,0.4081765,-2.232395e-05,,,,,,,,,,,,
0.4089706,-0.0001015488,,,,,,,,,,,,,0.4089706,-2.433814e-05,,,,,,,,,,,,
0.4097647,-1.02388e-05,,,,,,,,,,,,,0.4097647,-1.963836e-05,,,,,,,,,,,,
0.4105588,2.534523e-05,,,,,,,,,,,,,0.4105588,-1.896696e-05,,,,,,,,,,,,
0.4113529,3.30663e-05,,,,,,,,,,,,,0.4113529,-2.18204e-05,,,,,,,,,,,,
0.412147,2.635233e-05,,,,,,,,,,,,,0.412147,-3.30663e-05,,,,,,,,,,,,
0.4129412,4.481575e-05,,,,,,,,,,,,,0.4129412,-3.508049e-05,,,,,,,,,,,,
0.4137353,0.0001827878,,,,,,,,,,,,,0.4137353,-2.517739e-05,,,,,,,,,,,,
0.4145294,0.0002928969,,,,,,,,,,,,,0.4145294,-1.846342e-05,,,,,,,,,,,,
0.4153235,0.0002599985,,,,,,,,,,,,,0.4153235,-2.400244e-05,,,,,,,,,,,,
0.4161176,0.0001804379,,,,,,,,,,,,,0.4161176,-4.380865e-05,,,,,,,,,,,,
0.4169118,8.543526e-05,,,,,,,,,,,,,0.4169118,-4.347295e-05,,,,,,,,,,,,
0.4177059,3.860533e-06,,,,,,,,,,,,,0.4177059,-3.071641e-05,,,,,,,,,,,,
0.4185,-2.165255e-05,,,,,,,,,,,,,0.4185,-1.426719e-05,,,,,,,,,,,,
0.4192941,3.356985e-07,,,,,,,,,,,,,0.4192941,2.517739e-06,,,,,,,,,,,,
0.4200882,-2.047761e-05,,,,,,,,,,,,,0.4200882,9.903105e-06,,,,,,,,,,,,
0.4208823,-8.610666e-05,,,,,,,,,,,,,0.4208823,8.224612e-06,,,,,,,,,,,,
0.4216765,-0.0001727169,,,,,,,,,,,,,0.4216765,4.196231e-06,,,,,,,,,,,,
0.4224706,-0.0002781262,,,,,,,,,,,,,0.4224706,-1.678492e-07,,,,,,,,,,,,
0.4232647,-0.0002546273,,,,,,,,,,,,,0.4232647,-6.378271e-06,,,,,,,,,,,,
0.4240588,-0.0002321355,,,,,,,,,,,,,0.4240588,-1.628138e-05,,,,,,,,,,,,
0.4248529,-0.0002056153,,,,,,,,,,,,,0.4248529,-2.870222e-05,,,,,,,,,,,,
0.4256471,-0.0001070878,,,,,,,,,,,,,0.4256471,-3.810178e-05,,,,,,,,,,,,
0.4264412,8.560311e-06,,,,,,,,,,,,,0.4264412,-3.860533e-05,,,,,,,,,,,,
0.4272353,6.831464e-05,,,,,,,,,,,,,0.4272353,-3.927672e-05,,,,,,,,,,,,
0.4280294,0.0001099413,,,,,,,,,,,,,0.4280294,-4.061952e-05,,,,,,,,,,,,
0.4288235,0.0001334401,,,,,,,,,,,,,0.4288235,-3.541619e-05,,,,,,,,,,,,
0.4296176,0.0001287404,,,,,,,,,,,,,0.4296176,-3.105211e-05,,,,,,,,,,,,
0.4304118,0.0002395209,,,,,,,,,,,,,0.4304118,-2.433814e-05,,,,,,,,,,,,
0.4312059,0.0003432517,,,,,,,,,,,,,0.4312059,-1.913481e-05,,,,,,,,,,,,
0.432,0.0003063249,,,,,,,,,,,,,0.432,-1.359579e-05,,,,,,,,,,,,
0.4327941,0.0002244144,,,,,,,,,,,,,0.4327941,-1.359579e-05,,,,,,,,,,,,
0.4335882,9.567407e-05,,,,,,,,,,,,,0.4335882,-1.661708e-05,,,,,,,,,,,,
0.4343823,-2.870222e-05,,,,,,,,,,,,,0.4343823,-2.131685e-05,,,,,,,,,,,,
0.4351765,-9.550622e-05,,,,,,,,,,,,,0.4351765,-3.189136e-05,,,,,,,,,,,,
0.4359706,-0.00010692,,,,,,,,,,,,,0.4359706,-3.810178e-05,,,,,,,,,,,,
0.4367647,-9.483482e-05,,,,,,,,,,,,,0.4367647,-3.440909e-05,,,,,,,,,,,,
0.4375588,-0.0001089342,,,,,,,,,,,,,0.4375588,-2.735943e-05,,,,,,,,,,,,
0.4383529,-0.0001942016,,,,,,,,,,,,,0.4383529,-3.038071e-05,,,,,,,,,,,,
0.4391471,-0.0003409018,,,,,,,,,,,,,0.4391471,-3.189136e-05,,,,,,,,,,,,
0.4399412,-0.0003685969,,,,,,,,,,,,,0.4399412,-2.752728e-05,,,,,,,,,,,,
0.4407353,-0.000311696,,,,,,,,,,,,,0.4407353,-1.695277e-05,,,,,,,,,,,,
0.4415294,-0.0002234073,,,,,,,,,,,,,0.4415294,-1.426719e-05,,,,,,,,,,,,
0.4423235,-9.282063e-05,,,,,,,,,,,,,0.4423235,-2.366674e-05,,,,,,,,,,,,
0.4431176,-5.706874e-06,,,,,,,,,,,,,0.4431176,-3.390555e-05,,,,,,,,,,,,
0.4439118,1.846342e-05,,,,,,,,,,,,,0.4439118,-3.541619e-05,,,,,,,,,,,,
0.4447059,4.515145e-05,,,,,,,,,,,,,0.4447059,-3.071641e-05,,,,,,,,,,,,
0.4455,7.435722e-05,,,,,,,,,,,,,0.4455,-1.963836e-05,,,,,,,,,,,,
0.4462941,0.0001284047,,,,,,,,,,,,,0.4462941,-8.224612e-06,,,,,,,,,,,,
0.4470882,0.0002912184,,,,,,,,,,,,,0.4470882,-2.014191e-06,,,,,,,,,,,,
0.4478824,0.0003785,,,,,,,,,,,,,0.4478824,-2.18204e-06,,,,,,,,,,,,
0.4486765,0.0003315023,,,,,,,,,,,,,0.4486765,-5.706874e-06,,,,,,,,,,,,
0.4494706,0.0002923934,,,,,,,,,,,,,0.4494706,-8.89601e-06,,,,,,,,,,,,
0.4502647,0.0002213931,,,,,,,,,,,,,0.4502647,-1.258869e-05,,,,,,,,,,,,
0.4510588,0.0001119554,,,,,,,,,,,,,0.4510588,-1.863127e-05,,,,,,,,,,,,
0.4518529,8.224612e-06,,,,,,,,,,,,,0.4518529,-2.500954e-05,,,,,,,,,,,,
0.4526471,-6.126497e-05,,,,,,,,,,,,,0.4526471,-3.172351e-05,,,,,,,,,,,,
0.4534412,-8.308538e-05,,,,,,,,,,,,,0.4534412,-3.323415e-05,,,,,,,,,,,,
0.4542353,-9.684901e-05,,,,,,,,,,,,,0.4542353,-3.20592e-05,,,,,,,,,,,,
0.4550294,-0.0001774166,,,,,,,,,,,,,0.4550294,-3.675899e-05,,,,,,,,,,,,
0.4558235,-0.0003278096,,,,,,,,,,,,,0.4558235,-4.078737e-05,,,,,,,,,,,,
0.4566177,-0.000364065,,,,,,,,,,,,,0.4566177,-3.575189e-05,,,,,,,,,,,,
0.4574118,-0.0002861829,,,,,,,,,,,,,0.4574118,-3.30663e-05,,,,,,,,,,,,
0.4582059,-0.0002086366,,,,,,,,,,,,,0.4582059,-3.038071e-05,,,,,,,,,,,,
0.459,-0.0001237049,,,,,,,,,,,,,0.459,-2.836652e-05,,,,,,,,,,,,
0.4597941,-2.870222e-05,,,,,,,,,,,,,0.4597941,-2.534523e-05,,,,,,,,,,,,
0.4605882,-1.846342e-06,,,,,,,,,,,,,0.4605882,-2.165255e-05,,,,,,,,,,,,
0.4613824,6.54612e-06,,,,,,,,,,,,,0.4613824,-1.628138e-05,,,,,,,,,,,,
0.4621765,2.433814e-05,,,,,,,,,,,,,0.4621765,-1.292439e-05,,,,,,,,,,,,
0.4629706,2.618448e-05,,,,,,,,,,,,,0.4629706,-1.527428e-05,,,,,,,,,,,,
0.4637647,0.0001232013,,,,,,,,,,,,,0.4637647,-1.258869e-05,,,,,,,,,,,,
0.4645588,0.0002012512,,,,,,,,,,,,,0.4645588,-1.09102e-05,,,,,,,,,,,,
0.4653529,0.0001942016,,,,,,,,,,,,,0.4653529,-1.040665e-05,,,,,,,,,,,,
0.4661471,0.0001488823,,,,,,,,,,,,,0.4661471,-1.225299e-05,,,,,,,,,,,,
0.4669412,6.294347e-05,,,,,,,,,,,,,0.4669412,-1.376364e-05,,,,,,,,,,,,
0.4677353,-3.121996e-05,,,,,,,,,,,,,0.4677353,-1.258869e-05,,,,,,,,,,,,
0.4685294,-8.291753e-05,,,,,,,,,,,,,0.4685294,-1.628138e-05,,,,,,,,,,,,
0.4693235,-9.315633e-05,,,,,,,,,,,,,0.4693235,-2.568093e-05,,,,,,,,,,,,
0.4701176,-7.469291e-05,,,,,,,,,,,,,0.4701176,-2.500954e-05,,,,,,,,,,,,
0.4709118,-5.925078e-05,,,,,,,,,,,,,0.4709118,-2.232395e-05,,,,,,,,,,,,
0.4717059,-0.0001129625,,,,,,,,,,,,,0.4717059,-1.795987e-05,,,,,,,,,,,,
0.4725,-0.0002662089,,,,,,,,,,,,,0.4725,-2.064546e-05,,,,,,,,,,,,
0.4732941,-0.0003049821,,,,,,,,,,,,,0.4732941,-2.299535e-05,,,,,,,,,,,,
0.4740882,-0.0002675517,,,,,,,,,,,,,0.4740882,-2.719158e-05,,,,,,,,,,,,
0.4748823,-0.0001762417,,,,,,,,,,,,,0.4748823,-3.776608e-05,,,,,,,,,,,,
0.4756765,-7.200732e-05,,,,,,,,,,,,,0.4756765,-3.910887e-05,,,,,,,,,,,,
0.4764706,-1.174945e-06,,,,,,,,,,,,,0.4764706,-3.138781e-05,,,,,,,,,,,,
0.4772647,2.316319e-05,,,,,,,,,,,,,0.4772647,-2.433814e-05,,,,,,,,,,,,
0.4780588,3.843748e-05,,,,,,,,,,,,,0.4780588,-1.762417e-05,,,,,,,,,,,,
0.4788529,6.61326e-05,,,,,,,,,,,,,0.4788529,-1.12459e-05,,,,,,,,,,,,
0.479647,0.0001005417,,,,,,,,,,,,,0.479647,-9.903105e-06,,,,,,,,,,,,
0.4804412,0.0002507668,,,,,,,,,,,,,0.4804412,-1.09102e-05,,,,,,,,,,,,
0.4812353,0.0003523155,,,,,,,,,,,,,0.4812353,-1.292439e-05,,,,,,,,,,,,
0.4820294,0.0003167315,,,,,,,,,,,,,0.4820294,-1.19173e-05,,,,,,,,,,,,
0.4828235,0.000237171,,,,,,,,,,,,,0.4828235,-1.762417e-05,,,,,,,,,,,,
0.4836176,0.0001099413,,,,,,,,,,,,,0.4836176,-2.400244e-05,,,,,,,,,,,,
0.4844117,3.860533e-06,,,,,,,,,,,,,0.4844117,-2.333104e-05,,,,,,,,,,,,
0.4852059,-5.186542e-05,,,,,,,,,,,,,0.4852059,-2.568093e-05,,,,,,,,,,,,
0.486,-6.999313e-05,,,,,,,,,,,,,0.486,-2.500954e-05,,,,,,,,,,,,
0.4867941,-0.0001085985,,,,,,,,,,,,,0.4867941,-2.28275e-05,,,,,,,,,,,,
0.4875882,-0.0001502251,,,,,,,,,,,,,0.4875882,-2.668803e-05,,,,,,,,,,,,
0.4883823,-0.0002277714,,,,,,,,,,,,,0.4883823,-2.970932e-05,,,,,,,,,,,,
0.4891765,-0.0003714504,,,,,,,,,,,,,0.4891765,-2.803082e-05,,,,,,,,,,,,
0.4899706,-0.0003925994,,,,,,,,,,,,,0.4899706,-2.702373e-05,,,,,,,,,,,,
0.4907647,-0.0003743038,,,,,,,,,,,,,0.4907647,-3.23949e-05,,,,,,,,,,,,
0.4915588,-0.0002875258,,,,,,,,,,,,,0.4915588,-3.27306e-05,,,,,,,,,,,,
0.4923529,-0.0001364614,,,,,,,,,,,,,0.4923529,-2.903792e-05,,,,,,,,,,,,
0.493147,-2.366674e-05,,,,,,,,,,,,,0.493147,-2.165255e-05,,,,,,,,,,,,
0.4939412,3.877317e-05,,,,,,,,,,,,,0.4939412,-1.695277e-05,,,,,,,,,,,,
0.4947353,0.00010692,,,,,,,,,,,,,0.4947353,-2.500954e-05,,,,,,,,,,,,
0.4955294,0.0001545892,,,,,,,,,,,,,0.4955294,-3.30663e-05,,,,,,,,,,,,
0.4963235,0.0001586175,,,,,,,,,,,,,0.4963235,-3.575189e-05,,,,,,,,,,,,
0.4971176,0.0002781262,,,,,,,,,,,,,0.4971176,-3.30663e-05,,,,,,,,,,,,
0.4979118,0.0004348974,,,,,,,,,,,,,0.4979118,-2.735943e-05,,,,,,,,,,,,
0.4987059,0.0004422828,,,,,,,,,,,,,0.4987059,-2.165255e-05,,,,,,,,,,,,
0.4995,0.0003244526,,,,,,,,,,,,,0.4995,-2.383459e-05,,,,,,,,,,,,
0.5002941,0.0001797665,,,,,,,,,,,,,0.5002941,-2.786297e-05,,,,,,,,,,,,
0.5010882,6.797894e-05,,,,,,,,,,,,,0.5010882,-3.27306e-05,,,,,,,,,,,,
0.5018824,5.874723e-06,,,,,,,,,,,,,0.5018824,-3.23949e-05,,,,,,,,,,,,
0.5026765,-4.481575e-05,,,,,,,,,,,,,0.5026765,-2.803082e-05,,,,,,,,,,,,
0.5034706,-4.783703e-05,,,,,,,,,,,,,0.5034706,-2.433814e-05,,,,,,,,,,,,
0.5042647,-4.246586e-05,,,,,,,,,,,,,0.5042647,-2.098116e-05,,,,,,,,,,,,
0.5050588,-0.0001534142,,,,,,,,,,,,,0.5050588,-2.635233e-05,,,,,,,,,,,,
0.5058529,-0.0003093462,,,,,,,,,,,,,0.5058529,-2.534523e-05,,,,,,,,,,,,
0.5066471,-0.0002881972,,,,,,,,,,,,,0.5066471,-2.534523e-05,,,,,,,,,,,,
0.5074412,-0.0002438849,,,,,,,,,,,,,0.5074412,-2.366674e-05,,,,,,,,,,,,
0.5082353,-0.0002103151,,,,,,,,,,,,,0.5082353,-1.695277e-05,,,,,,,,,,,,
0.5090294,-0.0001253834,,,,,,,,,,,,,0.5090294,-2.568093e-05,,,,,,,,,,,,
0.5098235,-6.663615e-05,,,,,,,,,,,,,0.5098235,-4.213016e-05,,,,,,,,,,,,
0.5106176,-4.414435e-05,,,,,,,,,,,,,0.5106176,-3.944457e-05,,,,,,,,,,,,
0.5114118,-3.860533e-06,,,,,,,,,,,,,0.5114118,-2.870222e-05,,,,,,,,,,,,
0.5122059,2.165255e-05,,,,,,,,,,,,,0.5122059,-1.896696e-05,,,,,,,,,,,,
0.513,3.524834e-05,,,,,,,,,,,,,0.513,-1.040665e-05,,,,,,,,,,,,
0.5137941,0.0001502251,,,,,,,,,,,,,0.5137941,-2.18204e-06,,,,,,,,,,,,
0.5145882,0.0002415351,,,,,,,,,,,,,0.5145882,2.517739e-06,,,,,,,,,,,,
0.5153823,0.0002287785,,,,,,,,,,,,,0.5153823,4.867628e-06,,,,,,,,,,,,
0.5161765,0.0001916838,,,,,,,,,,,,,0.5161765,4.531929e-06,,,,,,,,,,,,
0.5169706,0.0001279011,,,,,,,,,,,,,0.5169706,1.846342e-06,,,,,,,,,,,,
0.5177647,4.548714e-05,,,,,,,,,,,,,0.5177647,-4.36408e-06,,,,,,,,,,,,
0.5185588,-2.836652e-05,,,,,,,,,,,,,0.5185588,-1.19173e-05,,,,,,,,,,,,
0.5193529,-5.4551e-05,,,,,,,,,,,,,0.5193529,-1.594568e-05,,,,,,,,,,,,
0.520147,-4.061952e-05,,,,,,,,,,,,,0.520147,-1.426719e-05,,,,,,,,,,,,
0.5209412,-6.395056e-05,,,,,,,,,,,,,0.5209412,-2.299535e-05,,,,,,,,,,,,
0.5217353,-0.0001854734,,,,,,,,,,,,,0.5217353,-3.004501e-05,,,,,,,,,,,,
0.5225294,-0.0003271382,,,,,,,,,,,,,0.5225294,-2.970932e-05,,,,,,,,,,,,
0.5233235,-0.000325124,,,,,,,,,,,,,0.5233235,-3.105211e-05,,,,,,,,,,,,
0.5241176,-0.0002687266,,,,,,,,,,,,,0.5241176,-3.23949e-05,,,,,,,,,,,,
0.5249118,-0.0001952087,,,,,,,,,,,,,0.5249118,-3.054856e-05,,,,,,,,,,,,
0.5257059,-0.0001096056,,,,,,,,,,,,,0.5257059,-3.105211e-05,,,,,,,,,,,,
0.5265,-3.138781e-05,,,,,,,,,,,,,0.5265,-2.769513e-05,,,,,,,,,,,,
0.5272941,1.460288e-05,,,,,,,,,,,,,0.5272941,-2.433814e-05,,,,,,,,,,,,
0.5280882,4.951553e-05,,,,,,,,,,,,,0.5280882,-2.635233e-05,,,,,,,,,,,,
0.5288823,8.644236e-05,,,,,,,,,,,,,0.5288823,-2.970932e-05,,,,,,,,,,,,
0.5296764,0.0001495537,,,,,,,,,,,,,0.5296764,-3.675899e-05,,,,,,,,,,,,
0.5304706,0.0002710765,,,,,,,,,,,,,0.5304706,-3.3402e-05,,,,,,,,,,,,
0.5312647,0.0003125353,,,,,,,,,,,,,0.5312647,-2.702373e-05,,,,,,,,,,,,
0.5320588,0.0002871901,,,,,,,,,,,,,0.5320588,-2.635233e-05,,,,,,,,,,,,
0.5328529,0.0002294499,,,,,,,,,,,,,0.5328529,-2.702373e-05,,,,,,,,,,,,
0.5336471,0.0001193408,,,,,,,,,,,,,0.5336471,-2.366674e-05,,,,,,,,,,,,
0.5344412,5.539025e-06,,,,,,,,,,,,,0.5344412,-2.635233e-05,,,,,,,,,,,,
0.5352353,-6.948959e-05,,,,,,,,,,,,,0.5352353,-2.836652e-05,,,,,,,,,,,,
0.5360294,-0.000100206,,,,,,,,,,,,,0.5360294,-2.903792e-05,,,,,,,,,,,,
0.5368235,-0.0001287404,,,,,,,,,,,,,0.5368235,-2.769513e-05,,,,,,,,,,,,
0.5376176,-0.0001431754,,,,,,,,,,,,,0.5376176,-3.30663e-05,,,,,,,,,,,,
0.5384117,-0.0002022583,,,,,,,,,,,,,0.5384117,-3.189136e-05,,,,,,,,,,,,
0.5392058,-0.0003266346,,,,,,,,,,,,,0.5392058,-2.433814e-05,,,,,,,,,,,,
0.54,-0.0003261311,,,,,,,,,,,,,0.54,-1.980621e-05,,,,,,,,,,,,
0.5407941,-0.0002818189,,,,,,,,,,,,,0.5407941,-2.333104e-05,,,,,,,,,,,,
0.5415882,-0.0002113222,,,,,,,,,,,,,0.5415882,-2.131685e-05,,,,,,,,,,,,
0.5423824,-0.0001049058,,,,,,,,,,,,,0.5423824,-1.359579e-05,,,,,,,,,,,,
0.5431765,-1.930266e-05,,,,,,,,,,,,,0.5431765,-9.903105e-06,,,,,,,,,,,,
0.5439706,3.541619e-05,,,,,,,,,,,,,0.5439706,-5.539025e-06,,,,,,,,,,,,
0.5447647,7.872129e-05,,,,,,,,,,,,,0.5447647,-4.196231e-06,,,,,,,,,,,,
0.5455588,8.090334e-05,,,,,,,,,,,,,0.5455588,-4.867628e-06,,,,,,,,,,,,
0.5463529,9.91989e-05,,,,,,,,,,,,,0.5463529,-1.393149e-05,,,,,,,,,,,,
0.547147,0.0002563058,,,,,,,,,,,,,0.547147,-1.762417e-05,,,,,,,,,,,,
0.5479411,0.0003630579,,,,,,,,,,,,,0.5479411,-1.359579e-05,,,,,,,,,,,,
0.5487353,0.0003298238,,,,,,,,,,,,,0.5487353,-1.359579e-05,,,,,,,,,,,,
0.5495294,0.0002581521,,,,,,,,,,,,,0.5495294,-1.628138e-05,,,,,,,,,,,,
0.5503235,0.0001119554,,,,,,,,,,,,,0.5503235,-1.795987e-05,,,,,,,,,,,,
0.5511177,-2.719158e-05,,,,,,,,,,,,,0.5511177,-1.829557e-05,,,,,,,,,,,,
0.5519118,-8.778516e-05,,,,,,,,,,,,,0.5519118,-2.316319e-05,,,,,,,,,,,,
0.5527059,-0.0001042344,,,,,,,,,,,,,0.5527059,-2.433814e-05,,,,,,,,,,,,
0.5535,-0.0001143053,,,,,,,,,,,,,0.5535,-2.232395e-05,,,,,,,,,,,,
0.5542941,-0.0001312581,,,,,,,,,,,,,0.5542941,-2.769513e-05,,,,,,,,,,,,
0.5550882,-0.0002002441,,,,,,,,,,,,,0.5550882,-3.541619e-05,,,,,,,,,,,,
0.5558823,-0.0003199207,,,,,,,,,,,,,0.5558823,-4.448005e-05,,,,,,,,,,,,
0.5566764,-0.0003226062,,,,,,,,,,,,,0.5566764,-4.750134e-05,,,,,,,,,,,,
0.5574706,-0.0002769512,,,,,,,,,,,,,0.5574706,-3.978027e-05,,,,,,,,,,,,
0.5582647,-0.0002056153,,,,,,,,,,,,,0.5582647,-3.23949e-05,,,,,,,,,,,,
0.5590588,-0.0001059129,,,,,,,,,,,,,0.5590588,-2.299535e-05,,,,,,,,,,,,
0.559853,-1.258869e-05,,,,,,,,,,,,,0.559853,-1.15816e-05,,,,,,,,,,,,
0.5606471,4.213016e-05,,,,,,,,,,,,,0.5606471,-7.217518e-06,,,,,,,,,,,,
0.5614412,6.227207e-05,,,,,,,,,,,,,0.5614412,-1.19173e-05,,,,,,,,,,,,
0.5622353,8.744946e-05,,,,,,,,,,,,,0.5622353,-1.460288e-05,,,,,,,,,,,,
0.5630294,0.0001257191,,,,,,,,,,,,,0.5630294,-1.527428e-05,,,,,,,,,,,,
0.5638235,0.0002596628,,,,,,,,,,,,,0.5638235,-1.896696e-05,,,,,,,,,,,,
0.5646176,0.0003120317,,,,,,,,,,,,,0.5646176,-3.105211e-05,,,,,,,,,,,,
0.5654117,0.0002311284,,,,,,,,,,,,,0.5654117,-3.558404e-05,,,,,,,,,,,,
0.5662059,0.0001428397,,,,,,,,,,,,,0.5662059,-3.23949e-05,,,,,,,,,,,,
0.567,3.172351e-05,,,,,,,,,,,,,0.567,-2.18204e-05,,,,,,,,,,,,
0.5677941,-7.167162e-05,,,,,,,,,,,,,0.5677941,-1.628138e-05,,,,,,,,,,,,
0.5685883,-0.0001230335,,,,,,,,,,,,,0.5685883,-1.09102e-05,,,,,,,,,,,,
0.5693824,-0.000160296,,,,,,,,,,,,,0.5693824,-1.15816e-05,,,,,,,,,,,,
0.5701765,-0.0001727169,,,,,,,,,,,,,0.5701765,-1.493858e-05,,,,,,,,,,,,
0.5709706,-0.0001505608,,,,,,,,,,,,,0.5709706,-2.18204e-05,,,,,,,,,,,,
0.5717647,-0.0001829557,,,,,,,,,,,,,0.5717647,-2.433814e-05,,,,,,,,,,,,
0.5725588,-0.0002720836,,,,,,,,,,,,,0.5725588,-2.433814e-05,,,,,,,,,,,,
0.5733529,-0.0002381781,,,,,,,,,,,,,0.5733529,-2.450599e-05,,,,,,,,,,,,
0.574147,-0.0001519036,,,,,,,,,,,,,0.574147,-2.433814e-05,,,,,,,,,,,,
0.5749412,-4.632639e-05,,,,,,,,,,,,,0.5749412,-2.735943e-05,,,,,,,,,,,,
0.5757353,9.382772e-05,,,,,,,,,,,,,0.5757353,-2.970932e-05,,,,,,,,,,,,
0.5765294,0.0001928588,,,,,,,,,,,,,0.5765294,-2.534523e-05,,,,,,,,,,,,
0.5773235,0.0002005798,,,,,,,,,,,,,0.5773235,-2.517739e-05,,,,,,,,,,,,
0.5781176,0.000212665,,,,,,,,,,,,,0.5781176,-2.333104e-05,,,,,,,,,,,,
0.5789118,0.0002344854,,,,,,,,,,,,,0.5789118,-2.333104e-05,,,,,,,,,,,,
0.5797059,0.000209308,,,,,,,,,,,,,0.5797059,-2.433814e-05,,,,,,,,,,,,
0.5805,0.0002871901,,,,,,,,,,,,,0.5805,-2.433814e-05,,,,,,,,,,,,
0.5812941,0.0003570153,,,,,,,,,,,,,0.5812941,-2.735943e-05,,,,,,,,,,,,
0.5820882,0.000295079,,,,,,,,,,,,,0.5820882,-3.004501e-05,,,,,,,,,,,,
0.5828823,0.0001975586,,,,,,,,,,,,,0.5828823,-3.23949e-05,,,,,,,,,,,,
0.5836765,6.294347e-05,,,,,,,,,,,,,0.5836765,-3.038071e-05,,,,,,,,,,,,
0.5844706,-3.440909e-05,,,,,,,,,,,,,0.5844706,-2.836652e-05,,,,,,,,,,,,
0.5852647,-8.274968e-05,,,,,,,,,,,,,0.5852647,-2.333104e-05,,,,,,,,,,,,
0.5860588,-0.0001138018,,,,,,,,,,,,,0.5860588,-1.896696e-05,,,,,,,,,,,,
0.5868529,-0.0001649958,,,,,,,,,,,,,0.5868529,-1.359579e-05,,,,,,,,,,,,
0.587647,-0.0001911803,,,,,,,,,,,,,0.587647,-1.359579e-05,,,,,,,,,,,,
0.5884412,-0.0002227359,,,,,,,,,,,,,0.5884412,-1.997406e-05,,,,,,,,,,,,
0.5892353,-0.0003385519,,,,,,,,,,,,,0.5892353,-1.896696e-05,,,,,,,,,,,,
0.5900294,-0.000367422,,,,,,,,,,,,,0.5900294,-2.299535e-05,,,,,,,,,,,,
0.5908235,-0.0003049821,,,,,,,,,,,,,0.5908235,-2.970932e-05,,,,,,,,,,,,
0.5916176,-0.0002069581,,,,,,,,,,,,,0.5916176,-3.004501e-05,,,,,,,,,,,,
0.5924118,-0.0001085985,,,,,,,,,,,,,0.5924118,-2.433814e-05,,,,,,,,,,,,
0.5932059,-3.709468e-05,,,,,,,,,,,,,0.5932059,-1.997406e-05,,,,,,,,,,,,
0.594,8.392462e-06,,,,,,,,,,,,,0.594,-2.098116e-05,,,,,,,,,,,,
0.5947941,2.769513e-05,,,,,,,,,,,,,0.5947941,-2.299535e-05,,,,,,,,,,,,
0.5955882,1.829557e-05,,,,,,,,,,,,,0.5955882,-3.021286e-05,,,,,,,,,,,,
0.5963823,5.891508e-05,,,,,,,,,,,,,0.5963823,-3.944457e-05,,,,,,,,,,,,
0.5971764,0.0002109865,,,,,,,,,,,,,0.5971764,-4.481575e-05,,,,,,,,,,,,
0.5979706,0.0002643625,,,,,,,,,,,,,0.5979706,-3.843748e-05,,,,,,,,,,,,
0.5987647,0.0002220645,,,,,,,,,,,,,0.5987647,-2.702373e-05,,,,,,,,,,,,
0.5995588,0.0001566033,,,,,,,,,,,,,0.5995588,-1.997406e-05,,,,,,,,,,,,
0.6003529,2.752728e-05,,,,,,,,,,,,,0.6003529,-1.359579e-05,,,,,,,,,,,,
0.6011471,-6.160067e-05,,,,,,,,,,,,,0.6011471,-6.54612e-06,,,,,,,,,,,,
0.6019412,-9.080644e-05,,,,,,,,,,,,,0.6019412,5.035477e-07,,,,,,,,,,,,
0.6027353,-0.0001203479,,,,,,,,,,,,,0.6027353,-2.517739e-06,,,,,,,,,,,,
0.6035294,-0.0001149767,,,,,,,,,,,,,0.6035294,-4.531929e-06,,,,,,,,,,,,
0.6043235,-8.711375e-05,,,,,,,,,,,,,0.6043235,-5.539025e-06,,,,,,,,,,,,
0.6051176,-0.0001545892,,,,,,,,,,,,,0.6051176,-7.721065e-06,,,,,,,,,,,,
0.6059117,-0.0002910506,,,,,,,,,,,,,0.6059117,-1.493858e-05,,,,,,,,,,,,
0.6067058,-0.0003177386,,,,,,,,,,,,,0.6067058,-1.829557e-05,,,,,,,,,,,,
0.6075,-0.0002435492,,,,,,,,,,,,,0.6075,-2.366674e-05,,,,,,,,,,,,
0.6082941,-0.0001361257,,,,,,,,,,,,,0.6082941,-2.903792e-05,,,,,,,,,,,,
0.6090882,-4.280156e-05,,,,,,,,,,,,,0.6090882,-2.970932e-05,,,,,,,,,,,,
0.6098824,1.09102e-05,,,,,,,,,,,,,0.6098824,-2.568093e-05,,,,,,,,,,,,
0.6106765,2.500954e-05,,,,,,,,,,,,,0.6106765,-2.433814e-05,,,,,,,,,,,,
0.6114706,3.30663e-05,,,,,,,,,,,,,0.6114706,-2.500954e-05,,,,,,,,,,,,
0.6122647,4.884413e-05,,,,,,,,,,,,,0.6122647,-2.165255e-05,,,,,,,,,,,,
0.6130588,8.677805e-05,,,,,,,,,,,,,0.6130588,-1.493858e-05,,,,,,,,,,,,
0.6138529,0.0002089723,,,,,,,,,,,,,0.6138529,-9.903105e-06,,,,,,,,,,,,
0.614647,0.0002688945,,,,,,,,,,,,,0.614647,-6.54612e-06,,,,,,,,,,,,
0.6154411,0.0002428779,,,,,,,,,,,,,0.6154411,-7.049668e-06,,,,,,,,,,,,
0.6162353,0.0001750668,,,,,,,,,,,,,0.6162353,-1.326009e-05,,,,,,,,,,,,
0.6170294,7.167162e-05,,,,,,,,,,,,,0.6170294,-2.047761e-05,,,,,,,,,,,,
0.6178235,-2.836652e-05,,,,,,,,,,,,,0.6178235,-2.316319e-05,,,,,,,,,,,,
0.6186177,-8.778516e-05,,,,,,,,,,,,,0.6186177,-2.987716e-05,,,,,,,,,,,,
0.6194118,-0.0001205158,,,,,,,,,,,,,0.6194118,-4.615854e-05,,,,,,,,,,,,
0.6202059,-0.0001240406,,,,,,,,,,,,,0.6202059,-4.901198e-05,,,,,,,,,,,,
0.621,-0.0001055772,,,,,,,,,,,,,0.621,-4.313725e-05,,,,,,,,,,,,
0.6217941,-0.0001587854,,,,,,,,,,,,,0.6217941,-3.776608e-05,,,,,,,,,,,,
0.6225882,-0.0002589914,,,,,,,,,,,,,0.6225882,-3.474479e-05,,,,,,,,,,,,
0.6233823,-0.0002824903,,,,,,,,,,,,,0.6233823,-2.400244e-05,,,,,,,,,,,,
0.6241764,-0.0002422065,,,,,,,,,,,,,0.6241764,-1.292439e-05,,,,,,,,,,,,
0.6249706,-0.0001760739,,,,,,,,,,,,,0.6249706,-1.09102e-05,,,,,,,,,,,,
0.6257647,-0.0001250477,,,,,,,,,,,,,0.6257647,-1.15816e-05,,,,,,,,,,,,
0.6265588,-6.193637e-05,,,,,,,,,,,,,0.6265588,-1.074235e-05,,,,,,,,,,,,
0.627353,-2.098116e-05,,,,,,,,,,,,,0.627353,-1.896696e-05,,,,,,,,,,,,
0.6281471,-4.313725e-05,,,,,,,,,,,,,0.6281471,-3.709468e-05,,,,,,,,,,,,
0.6289412,-3.608759e-05,,,,,,,,,,,,,0.6289412,-5.119402e-05,,,,,,,,,,,,
0.6297353,4.280156e-05,,,,,,,,,,,,,0.6297353,-4.716563e-05,,,,,,,,,,,,
0.6305294,0.0002326391,,,,,,,,,,,,,0.6305294,-3.289845e-05,,,,,,,,,,,,
0.6313235,0.0003348592,,,,,,,,,,,,,0.6313235,-1.560998e-05,,,,,,,,,,,,
0.6321176,0.0003194171,,,,,,,,,,,,,0.6321176,-4.36408e-06,,,,,,,,,,,,
0.6329117,0.0003368734,,,,,,,,,,,,,0.6329117,-1.426719e-05,,,,,,,,,,,,
0.6337059,0.0002845045,,,,,,,,,,,,,0.6337059,-2.232395e-05,,,,,,,,,,,,
0.6345,0.0001878233,,,,,,,,,,,,,0.6345,-1.829557e-05,,,,,,,,,,,,
0.6352941,0.000161471,,,,,,,,,,,,,0.6352941,-8.560311e-06,,,,,,,,,,,,
0.6360883,0.0002032654,,,,,,,,,,,,,0.6360883,-1.225299e-05,,,,,,,,,,,,
0.6368824,0.000152575,,,,,,,,,,,,,0.6368824,-1.762417e-05,,,,,,,,,,,,
0.6376765,5.270466e-05,,,,,,,,,,,,,0.6376765,-2.836652e-05,,,,,,,,,,,,
0.6384706,-7.368582e-05,,,,,,,,,,,,,0.6384706,-3.642328e-05,,,,,,,,,,,,
0.6392647,-0.0002244144,,,,,,,,,,,,,0.6392647,-4.682994e-05,,,,,,,,,,,,
0.6400588,-0.0002586557,,,,,,,,,,,,,0.6400588,-4.850843e-05,,,,,,,,,,,,
0.6408529,-0.0002422065,,,,,,,,,,,,,0.6408529,-3.37377e-05,,,,,,,,,,,,
0.641647,-0.0001398184,,,,,,,,,,,,,0.641647,-2.232395e-05,,,,,,,,,,,,
0.6424412,-5.035477e-05,,,,,,,,,,,,,0.6424412,-2.030976e-05,,,,,,,,,,,,
0.6432353,-1.292439e-05,,,,,,,,,,,,,0.6432353,-2.887007e-05,,,,,,,,,,,,
0.6440294,3.843748e-05,,,,,,,,,,,,,0.6440294,-2.652018e-05,,,,,,,,,,,,
0.6448235,7.435722e-05,,,,,,,,,,,,,0.6448235,-1.896696e-05,,,,,,,,,,,,
0.6456177,8.979935e-05,,,,,,,,,,,,,0.6456177,-1.426719e-05,,,,,,,,,,,,
0.6464118,0.0001258869,,,,,,,,,,,,,0.6464118,-1.09102e-05,,,,,,,,,,,,
0.6472059,0.0002254215,,,,,,,,,,,,,0.6472059,-1.19173e-05,,,,,,,,,,,,
0.648,0.0002563058,,,,,,,,,,,,,0.648,-1.174945e-05,,,,,,,,,,,,
0.6487941,0.0002200504,,,,,,,,,,,,,0.6487941,-1.258869e-05,,,,,,,,,,,,
0.6495882,0.0001482109,,,,,,,,,,,,,0.6495882,-1.829557e-05,,,,,,,,,,,,
0.6503823,4.867628e-06,,,,,,,,,,,,,0.6503823,-2.098116e-05,,,,,,,,,,,,
0.6511765,-0.0001129625,,,,,,,,,,,,,0.6511765,-1.795987e-05,,,,,,,,,,,,
0.6519706,-0.0001754025,,,,,,,,,,,,,0.6519706,-1.695277e-05,,,,,,,,,,,,
0.6527647,-0.0002177005,,,,,,,,,,,,,0.6527647,-1.628138e-05,,,,,,,,,,,,
0.6535588,-0.0002351568,,,,,,,,,,,,,0.6535588,-2.702373e-05,,,,,,,,,,,,
0.6543529,-0.0002264286,,,,,,,,,,,,,0.6543529,-2.349889e-05,,,,,,,,,,,,
0.6551471,-0.0002955825,,,,,,,,,,,,,0.6551471,-1.762417e-05,,,,,,,,,,,,
0.6559412,-0.0004318761,,,,,,,,,,,,,0.6559412,-1.762417e-05,,,,,,,,,,,,
0.6567353,-0.000434226,,,,,,,,,,,,,0.6567353,-2.064546e-05,,,,,,,,,,,,
0.6575294,-0.0003613794,,,,,,,,,,,,,0.6575294,-3.575189e-05,,,,,,,,,,,,
0.6583235,-0.0002542916,,,,,,,,,,,,,0.6583235,-3.944457e-05,,,,,,,,,,,,
0.6591176,-0.0001300832,,,,,,,,,,,,,0.6591176,-3.189136e-05,,,,,,,,,,,,
0.6599118,-1.762417e-05,,,,,,,,,,,,,0.6599118,-2.299535e-05,,,,,,,,,,,,
0.6607059,2.265965e-05,,,,,,,,,,,,,0.6607059,-1.560998e-05,,,,,,,,,,,,
0.6615,3.138781e-05,,,,,,,,,,,,,0.6615,-7.217518e-06,,,,,,,,,,,,
0.6622941,5.62295e-05,,,,,,,,,,,,,0.6622941,-4.867628e-06,,,,,,,,,,,,
0.6630882,0.0001218585,,,,,,,,,,,,,0.6630882,-1.02388e-05,,,,,,,,,,,,
0.6638823,0.0002902113,,,,,,,,,,,,,0.6638823,-1.09102e-05,,,,,,,,,,,,
0.6646765,0.0003654078,,,,,,,,,,,,,0.6646765,-8.560311e-06,,,,,,,,,,,,
0.6654706,0.0003311665,,,,,,,,,,,,,0.6654706,-1.309224e-05,,,,,,,,,,,,
0.6662647,0.000251606,,,,,,,,,,,,,0.6662647,-1.863127e-05,,,,,,,,,,,,
0.6670588,9.181353e-05,,,,,,,,,,,,,0.6670588,-2.1149e-05,,,,,,,,,,,,
0.6678529,-2.702373e-05,,,,,,,,,,,,,0.6678529,-2.635233e-05,,,,,,,,,,,,
0.6686471,-6.210422e-05,,,,,,,,,,,,,0.6686471,-2.702373e-05,,,,,,,,,,,,
0.6694412,-7.351797e-05,,,,,,,,,,,,,0.6694412,-2.702373e-05,,,,,,,,,,,,
0.6702353,-9.483482e-05,,,,,,,,,,,,,0.6702353,-2.601663e-05,,,,,,,,,,,,
0.6710294,-0.0001267262,,,,,,,,,,,,,0.6710294,-2.568093e-05,,,,,,,,,,,,
0.6718235,-0.0002158541,,,,,,,,,,,,,0.6718235,-2.702373e-05,,,,,,,,,,,,
0.6726176,-0.0003304952,,,,,,,,,,,,,0.6726176,-2.635233e-05,,,,,,,,,,,,
0.6734117,-0.0003257954,,,,,,,,,,,,,0.6734117,-2.668803e-05,,,,,,,,,,,,
0.6742059,-0.0002700694,,,,,,,,,,,,,0.6742059,-2.668803e-05,,,,,,,,,,,,
0.675,-0.0001747311,,,,,,,,,,,,,0.675,-2.366674e-05,,,,,,,,,,,,
0.6757941,-5.757229e-05,,,,,,,,,,,,,0.6757941,-2.450599e-05,,,,,,,,,,,,
0.6765882,2.786297e-05,,,,,,,,,,,,,0.6765882,-2.500954e-05,,,,,,,,,,,,
0.6773823,5.857939e-05,,,,,,,,,,,,,0.6773823,-2.366674e-05,,,,,,,,,,,,
0.6781765,8.392462e-05,,,,,,,,,,,,,0.6781765,-2.299535e-05,,,,,,,,,,,,
0.6789706,9.382772e-05,,,,,,,,,,,,,0.6789706,-2.584878e-05,,,,,,,,,,,,
0.6797647,0.0001273976,,,,,,,,,,,,,0.6797647,-2.333104e-05,,,,,,,,,,,,
0.6805588,0.0002683909,,,,,,,,,,,,,0.6805588,-2.316319e-05,,,,,,,,,,,,
0.6813529,0.0003486229,,,,,,,,,,,,,0.6813529,-2.366674e-05,,,,,,,,,,,,
0.682147,0.0003163958,,,,,,,,,,,,,0.682147,-2.383459e-05,,,,,,,,,,,,
0.6829411,0.000235996,,,,,,,,,,,,,0.6829411,-2.635233e-05,,,,,,,,,,,,
0.6837353,0.0001106127,,,,,,,,,,,,,0.6837353,-2.635233e-05,,,,,,,,,,,,
0.6845294,1.728847e-05,,,,,,,,,,,,,0.6845294,-2.635233e-05,,,,,,,,,,,,
0.6853235,-2.1149e-05,,,,,,,,,,,,,0.6853235,-2.568093e-05,,,,,,,,,,,,
0.6861176,-5.925078e-05,,,,,,,,,,,,,0.6861176,-2.500954e-05,,,,,,,,,,,,
0.6869118,-0.0001070878,,,,,,,,,,,,,0.6869118,-2.500954e-05,,,,,,,,,,,,
0.6877059,-0.0001680171,,,,,,,,,,,,,0.6877059,-1.896696e-05,,,,,,,,,,,,
0.6885,-0.0002599985,,,,,,,,,,,,,0.6885,-1.863127e-05,,,,,,,,,,,,
0.6892941,-0.0003637293,,,,,,,,,,,,,0.6892941,-2.500954e-05,,,,,,,,,,,,
0.6900882,-0.0003603723,,,,,,,,,,,,,0.6900882,-2.668803e-05,,,,,,,,,,,,
0.6908823,-0.0002945754,,,,,,,,,,,,,0.6908823,-2.333104e-05,,,,,,,,,,,,
0.6916764,-0.000191516,,,,,,,,,,,,,0.6916764,-2.652018e-05,,,,,,,,,,,,
0.6924706,-7.200732e-05,,,,,,,,,,,,,0.6924706,-2.920577e-05,,,,,,,,,,,,
0.6932647,4.179446e-05,,,,,,,,,,,,,0.6932647,-2.803082e-05,,,,,,,,,,,,
0.6940588,0.0001065843,,,,,,,,,,,,,0.6940588,-2.18204e-05,,,,,,,,,,,,
0.6948529,0.0001522393,,,,,,,,,,,,,0.6948529,-1.980621e-05,,,,,,,,,,,,
0.6956471,0.0001320974,,,,,,,,,,,,,0.6956471,-1.762417e-05,,,,,,,,,,,,
0.6964412,0.0001220264,,,,,,,,,,,,,0.6964412,-1.896696e-05,,,,,,,,,,,,
0.6972353,0.0002646983,,,,,,,,,,,,,0.6972353,-2.030976e-05,,,,,,,,,,,,
0.6980294,0.0003378805,,,,,,,,,,,,,0.6980294,-2.165255e-05,,,,,,,,,,,,
0.6988235,0.0002897078,,,,,,,,,,,,,0.6988235,-2.433814e-05,,,,,,,,,,,,
0.6996176,0.0002225681,,,,,,,,,,,,,0.6996176,-2.500954e-05,,,,,,,,,,,,
0.7004117,0.000111284,,,,,,,,,,,,,0.7004117,-2.232395e-05,,,,,,,,,,,,
0.7012058,-1.292439e-05,,,,,,,,,,,,,0.7012058,-2.500954e-05,,,,,,,,,,,,
0.702,-9.483482e-05,,,,,,,,,,,,,0.702,-2.970932e-05,,,,,,,,,,,,
0.7027941,-0.0001270619,,,,,,,,,,,,,0.7027941,-2.870222e-05,,,,,,,,,,,,
0.7035882,-0.0001237049,,,,,,,,,,,,,0.7035882,-2.534523e-05,,,,,,,,,,,,
0.7043824,-0.0001435111,,,,,,,,,,,,,0.7043824,-2.131685e-05,,,,,,,,,,,,
0.7051765,-0.0002072938,,,,,,,,,,,,,0.7051765,-1.628138e-05,,,,,,,,,,,,
0.7059706,-0.0003036393,,,,,,,,,,,,,0.7059706,-1.02388e-05,,,,,,,,,,,,
0.7067647,-0.0003197528,,,,,,,,,,,,,0.7067647,-8.224612e-06,,,,,,,,,,,,
0.7075588,-0.0002687266,,,,,,,,,,,,,0.7075588,-9.903105e-06,,,,,,,,,,,,
0.7083529,-0.0001393149,,,,,,,,,,,,,0.7083529,-1.05745e-05,,,,,,,,,,,,
0.709147,-1.02388e-05,,,,,,,,,,,,,0.709147,-1.309224e-05,,,,,,,,,,,,
0.7099411,7.872129e-05,,,,,,,,,,,,,0.7099411,-1.997406e-05,,,,,,,,,,,,
0.7107353,0.0001085985,,,,,,,,,,,,,0.7107353,-2.383459e-05,,,,,,,,,,,,
0.7115294,0.0001401541,,,,,,,,,,,,,0.7115294,-2.534523e-05,,,,,,,,,,,,
0.7123235,0.0001821164,,,,,,,,,,,,,0.7123235,-2.433814e-05,,,,,,,,,,,,
0.7131177,0.0001995728,,,,,,,,,,,,,0.7131177,-2.467384e-05,,,,,,,,,,,,
0.7139118,0.000300618,,,,,,,,,,,,,0.7139118,-2.366674e-05,,,,,,,,,,,,
0.7147059,0.0003335165,,,,,,,,,,,,,0.7147059,-2.299535e-05,,,,,,,,,,,,
0.7155,0.0002328069,,,,,,,,,,,,,0.7155,-2.24918e-05,,,,,,,,,,,,
0.7162941,0.0001349508,,,,,,,,,,,,,0.7162941,-2.635233e-05,,,,,,,,,,,,
0.7170882,3.743038e-05,,,,,,,,,,,,,0.7170882,-2.568093e-05,,,,,,,,,,,,
0.7178823,-6.361486e-05,,,,,,,,,,,,,0.7178823,-2.433814e-05,,,,,,,,,,,,
0.7186764,-0.0001282368,,,,,,,,,,,,,0.7186764,-2.299535e-05,,,,,,,,,,,,
0.7194706,-0.0001649958,,,,,,,,,,,,,0.7194706,-1.628138e-05,,,,,,,,,,,,
0.7202647,-0.0001713741,,,,,,,,,,,,,0.7202647,-1.493858e-05,,,,,,,,,,,,
0.7210588,-0.000149218,,,,,,,,,,,,,0.7210588,-2.299535e-05,,,,,,,,,,,,
0.721853,-0.0002458991,,,,,,,,,,,,,0.721853,-3.910887e-05,,,,,,,,,,,,
0.7226471,-0.0003892424,,,,,,,,,,,,,0.7226471,-5.52224e-05,,,,,,,,,,,,
0.7234412,-0.0003771572,,,,,,,,,,,,,0.7234412,-5.925078e-05,,,,,,,,,,,,
0.7242353,-0.0003560082,,,,,,,,,,,,,0.7242353,-4.481575e-05,,,,,,,,,,,,
0.7250294,-0.0002715801,,,,,,,,,,,,,0.7250294,-2.568093e-05,,,,,,,,,,,,
0.7258235,-0.0001257191,,,,,,,,,,,,,0.7258235,-2.030976e-05,,,,,,,,,,,,
0.7266176,2.584878e-05,,,,,,,,,,,,,0.7266176,-1.795987e-05,,,,,,,,,,,,
0.7274117,0.0001206836,,,,,,,,,,,,,0.7274117,-1.02388e-05,,,,,,,,,,,,
0.7282059,0.0001707027,,,,,,,,,,,,,0.7282059,-1.292439e-05,,,,,,,,,,,,
0.729,0.0002177005,,,,,,,,,,,,,0.729,-1.359579e-05,,,,,,,,,,,,
0.7297941,0.0002845045,,,,,,,,,,,,,0.7297941,-9.903105e-06,,,,,,,,,,,,
0.7305882,0.00040972,,,,,,,,,,,,,0.7305882,-1.225299e-05,,,,,,,,,,,,
0.7313824,0.0004399329,,,,,,,,,,,,,0.7313824,-1.762417e-05,,,,,,,,,,,,
0.7321765,0.000385214,,,,,,,,,,,,,0.7321765,-2.098116e-05,,,,,,,,,,,,
0.7329706,0.0002898756,,,,,,,,,,,,,0.7329706,-2.836652e-05,,,,,,,,,,,,
0.7337647,0.0001320974,,,,,,,,,,,,,0.7337647,-2.903792e-05,,,,,,,,,,,,
0.7345588,-8.392462e-07,,,,,,,,,,,,,0.7345588,-2.534523e-05,,,,,,,,,,,,
0.7353529,-9.282063e-05,,,,,,,,,,,,,0.7353529,-2.937362e-05,,,,,,,,,,,,
0.736147,-0.0001572747,,,,,,,,,,,,,0.736147,-2.719158e-05,,,,,,,,,,,,
0.7369412,-0.0001811093,,,,,,,,,,,,,0.7369412,-2.1149e-05,,,,,,,,,,,,
0.7377353,-0.0002012512,,,,,,,,,,,,,0.7377353,-1.812772e-05,,,,,,,,,,,,
0.7385294,-0.0002999466,,,,,,,,,,,,,0.7385294,-1.930266e-05,,,,,,,,,,,,
0.7393235,-0.0004033417,,,,,,,,,,,,,0.7393235,-2.299535e-05,,,,,,,,,,,,
0.7401176,-0.0003996491,,,,,,,,,,,,,0.7401176,-2.299535e-05,,,,,,,,,,,,
0.7409118,-0.0003560082,,,,,,,,,,,,,0.7409118,-2.836652e-05,,,,,,,,,,,,
0.7417059,-0.0002143435,,,,,,,,,,,,,0.7417059,-2.970932e-05,,,,,,,,,,,,
0.7425,-5.186542e-05,,,,,,,,,,,,,0.7425,-2.635233e-05,,,,,,,,,,,,
0.7432941,3.071641e-05,,,,,,,,,,,,,0.7432941,-2.299535e-05,,,,,,,,,,,,
0.7440882,4.313725e-05,,,,,,,,,,,,,0.7440882,-2.299535e-05,,,,,,,,,,,,
0.7448823,3.843748e-05,,,,,,,,,,,,,0.7448823,-2.064546e-05,,,,,,,,,,,,
0.7456765,7.905699e-05,,,,,,,,,,,,,0.7456765,-1.846342e-05,,,,,,,,,,,,
0.7464706,0.0001461967,,,,,,,,,,,,,0.7464706,-2.265965e-05,,,,,,,,,,,,
0.7472647,0.0002576486,,,,,,,,,,,,,0.7472647,-3.20592e-05,,,,,,,,,,,,
0.7480588,0.000288365,,,,,,,,,,,,,0.7480588,-3.440909e-05,,,,,,,,,,,,
0.7488529,0.0002539559,,,,,,,,,,,,,0.7488529,-3.054856e-05,,,,,,,,,,,,
0.749647,0.0002079652,,,,,,,,,,,,,0.749647,-2.400244e-05,,,,,,,,,,,,
0.7504412,7.368582e-05,,,,,,,,,,,,,0.7504412,-1.09102e-05,,,,,,,,,,,,
0.7512353,-1.930266e-05,,,,,,,,,,,,,0.7512353,1.007095e-06,,,,,,,,,,,,
0.7520294,-5.186542e-05,,,,,,,,,,,,,0.7520294,5.203327e-06,,,,,,,,,,,,
0.7528235,-8.812085e-05,,,,,,,,,,,,,0.7528235,-5.035477e-07,,,,,,,,,,,,
0.7536176,-0.000109102,,,,,,,,,,,,,0.7536176,-6.881819e-06,,,,,,,,,,,,
0.7544118,-9.718471e-05,,,,,,,,,,,,,0.7544118,-1.05745e-05,,,,,,,,,,,,
